Sensor Name: ttx1
Initial Resistance: 87 ohms
Start Time: 2024-11-04 23:11:47
Time (s), Voltage (V)
1.48, 0.1613
1.58, 0.1613
1.68, 0.1564
1.78, 0.1564
1.89, 0.1515
1.99, 0.1515
2.08, 0.1466
2.19, 0.1466
2.31, 0.1466
2.44, 0.1466
2.50, 0.1515
2.59, 0.1515
2.69, 0.1515
2.80, 0.1564
2.90, 0.1613
3.00, 0.1662
3.11, 0.1613
3.20, 0.1613
3.30, 0.1564
3.40, 0.1515
3.50, 0.1515
3.61, 0.1515
3.71, 0.1466
3.80, 0.1466
3.91, 0.1466
4.01, 0.1466
4.11, 0.1515
4.22, 0.1564
4.31, 0.1613
4.42, 0.1613
4.51, 0.1613
4.62, 0.1613
4.72, 0.1564
4.82, 0.1564
4.92, 0.1515
5.02, 0.1515
5.13, 0.1466
5.22, 0.1466
5.32, 0.1466
5.43, 0.1466
5.53, 0.1515
5.63, 0.1515
5.73, 0.1564
5.83, 0.1564
5.93, 0.1613
6.03, 0.1613
6.14, 0.1613
6.24, 0.1564
6.34, 0.1564
6.44, 0.1515
6.54, 0.1466
6.64, 0.1466
6.74, 0.1466
6.85, 0.1466
6.95, 0.1466
7.05, 0.1515
7.15, 0.1515
7.25, 0.1515
7.35, 0.1613
7.45, 0.1613
7.56, 0.1613
7.66, 0.1662
7.76, 0.1564
7.86, 0.1515
7.96, 0.1515
8.06, 0.1466
8.16, 0.1466
8.26, 0.1466
8.36, 0.1515
8.47, 0.1466
8.57, 0.1466
8.67, 0.1515
8.77, 0.1564
8.87, 0.1564
8.97, 0.1613
9.07, 0.1613
9.17, 0.1613
9.27, 0.1564
9.38, 0.1515
9.48, 0.1466
9.58, 0.1515
9.69, 0.1466
9.78, 0.1466
9.88, 0.1466
9.98, 0.1466
10.09, 0.1515
10.19, 0.1564
10.29, 0.1564
10.39, 0.1564
10.49, 0.1613
10.59, 0.1613
10.69, 0.1564
10.79, 0.1564
10.89, 0.1515
11.00, 0.1515
11.10, 0.1466
11.20, 0.1466
11.30, 0.1466
11.40, 0.1417
11.51, 0.1466
11.60, 0.1515
11.71, 0.1564
11.81, 0.1564
11.91, 0.1613
12.01, 0.1613
12.11, 0.1613
12.21, 0.1564
12.31, 0.1515
12.42, 0.1515
12.51, 0.1515
12.62, 0.1466
12.72, 0.1466
12.82, 0.1466
12.93, 0.1466
13.03, 0.1515
13.13, 0.1564
13.23, 0.1515
13.32, 0.1564
13.43, 0.1613
13.53, 0.1613
13.63, 0.1613
13.73, 0.1564
13.83, 0.1564
13.94, 0.1564
14.03, 0.1808
14.14, 0.2248
14.24, 0.2639
14.34, 0.2933
14.44, 0.3128
14.54, 0.3324
14.64, 0.3470
14.75, 0.3519
14.85, 0.3666
14.95, 0.3763
15.05, 0.3812
15.15, 0.3812
15.25, 0.3812
15.35, 0.3861
15.45, 0.3812
15.55, 0.3763
15.66, 0.3763
15.76, 0.3763
15.86, 0.3763
15.96, 0.3763
16.06, 0.3763
16.16, 0.3861
16.26, 0.3861
16.37, 0.3959
16.46, 0.4008
16.57, 0.4008
16.67, 0.4008
16.77, 0.3959
16.87, 0.3959
16.98, 0.3910
17.08, 0.3861
17.18, 0.3861
17.28, 0.3861
17.38, 0.3861
17.48, 0.3910
17.58, 0.3959
17.69, 0.4008
17.79, 0.4008
17.89, 0.4057
17.98, 0.4106
18.09, 0.4106
18.19, 0.4106
18.29, 0.4106
18.39, 0.4057
18.50, 0.4008
18.59, 0.3959
18.69, 0.3959
18.79, 0.3910
18.90, 0.3910
19.00, 0.3910
19.10, 0.3910
19.20, 0.3910
19.30, 0.3959
19.40, 0.4008
19.50, 0.4057
19.61, 0.4057
19.71, 0.4057
19.81, 0.4008
19.91, 0.3959
20.01, 0.3959
20.11, 0.3910
20.22, 0.3910
20.32, 0.3861
20.42, 0.3861
20.52, 0.3910
20.62, 0.3910
20.72, 0.3959
20.83, 0.4008
20.92, 0.4008
21.03, 0.4106
21.12, 0.4106
21.23, 0.4106
21.33, 0.4057
21.43, 0.4008
21.53, 0.3959
21.63, 0.3910
21.74, 0.3910
21.84, 0.3910
21.94, 0.3910
22.04, 0.3910
22.14, 0.3910
22.24, 0.3959
22.34, 0.4008
22.44, 0.4057
22.54, 0.4106
22.65, 0.4106
22.75, 0.4057
22.85, 0.4057
22.95, 0.4008
23.05, 0.3959
23.16, 0.3959
23.25, 0.3910
23.36, 0.3910
23.45, 0.3959
23.55, 0.3910
23.66, 0.3959
23.76, 0.3959
23.86, 0.4008
23.96, 0.4106
24.06, 0.4106
24.17, 0.4106
24.27, 0.4106
24.37, 0.4057
24.47, 0.4008
24.57, 0.4008
24.67, 0.3959
24.77, 0.3910
24.87, 0.3910
24.97, 0.3959
25.08, 0.3910
25.18, 0.3959
25.28, 0.4008
25.38, 0.4057
25.48, 0.4057
25.58, 0.4106
25.68, 0.4106
25.79, 0.4106
25.89, 0.4106
25.99, 0.4057
26.09, 0.4008
26.19, 0.3959
26.29, 0.3910
26.39, 0.3910
26.50, 0.3959
26.60, 0.3959
26.70, 0.3959
26.80, 0.3959
26.90, 0.4008
27.00, 0.4057
27.10, 0.4106
27.20, 0.4106
27.30, 0.4106
27.41, 0.4106
27.51, 0.4057
27.61, 0.4008
27.71, 0.3959
27.81, 0.3959
27.91, 0.3910
28.01, 0.3959
28.12, 0.3959
28.22, 0.3959
28.31, 0.4008
28.42, 0.4008
28.52, 0.4057
28.62, 0.4154
28.72, 0.4154
28.82, 0.4154
28.92, 0.4106
29.02, 0.4106
29.13, 0.4008
29.23, 0.4008
29.33, 0.3959
29.43, 0.4008
29.53, 0.4008
29.64, 0.3959
29.74, 0.3959
29.83, 0.3959
29.96, 0.4057
30.04, 0.4106
30.14, 0.4154
30.24, 0.4154
30.34, 0.4154
30.45, 0.4106
30.55, 0.4057
30.65, 0.4008
30.75, 0.4008
30.85, 0.3959
30.95, 0.3959
31.05, 0.3959
31.16, 0.3959
31.25, 0.3959
31.35, 0.4008
31.46, 0.4057
31.56, 0.4106
31.66, 0.4106
31.76, 0.4154
31.86, 0.4154
31.96, 0.4106
32.07, 0.4106
32.17, 0.4057
32.27, 0.4008
32.37, 0.4008
32.47, 0.4008
32.57, 0.3959
32.67, 0.3959
32.77, 0.4008
32.87, 0.4057
32.98, 0.4106
33.08, 0.4106
33.18, 0.4154
33.28, 0.4203
33.38, 0.4154
33.48, 0.4106
33.59, 0.4106
33.68, 0.4057
33.79, 0.4008
33.89, 0.4008
33.99, 0.4008
34.09, 0.3959
34.19, 0.4008
34.30, 0.4008
34.40, 0.4057
34.49, 0.4057
34.60, 0.4106
34.70, 0.4154
34.80, 0.4154
34.90, 0.4154
35.00, 0.4203
35.10, 0.4106
35.21, 0.4106
35.31, 0.4008
35.41, 0.4008
35.51, 0.4008
35.61, 0.4008
35.71, 0.4008
35.81, 0.4057
35.91, 0.4057
36.02, 0.4057
36.12, 0.4154
36.22, 0.4203
36.32, 0.4203
36.43, 0.4203
36.52, 0.4203
36.63, 0.4154
36.72, 0.4106
36.83, 0.4057
36.93, 0.4008
37.03, 0.4008
37.13, 0.4008
37.23, 0.4008
37.33, 0.4008
37.43, 0.4057
37.53, 0.4106
37.64, 0.4106
37.74, 0.4154
37.84, 0.4203
37.94, 0.4203
38.04, 0.4154
38.14, 0.4106
38.24, 0.4106
38.35, 0.4057
38.44, 0.4008
38.54, 0.4008
38.65, 0.4008
38.75, 0.4008
38.85, 0.4008
38.96, 0.4106
39.06, 0.4057
39.16, 0.4106
39.26, 0.4154
39.36, 0.4203
39.46, 0.4203
39.56, 0.4203
39.67, 0.4154
39.76, 0.4154
39.86, 0.4106
39.96, 0.4057
40.06, 0.4008
40.17, 0.4008
40.27, 0.4008
40.37, 0.4008
40.47, 0.4057
40.57, 0.4057
40.68, 0.4106
40.78, 0.4203
40.88, 0.4203
40.98, 0.4154
41.08, 0.4203
41.18, 0.4154
41.28, 0.4106
41.38, 0.4057
41.48, 0.4008
41.59, 0.4008
41.69, 0.4008
41.79, 0.4008
41.89, 0.4008
41.99, 0.4008
42.09, 0.4106
42.19, 0.4106
42.30, 0.4203
42.40, 0.4203
42.50, 0.4203
42.60, 0.4203
42.70, 0.4106
42.80, 0.4057
42.90, 0.4057
43.00, 0.4008
43.10, 0.4008
43.20, 0.4008
43.31, 0.4057
43.41, 0.4057
43.51, 0.4057
43.61, 0.4057
43.71, 0.4106
43.81, 0.4154
43.92, 0.4154
44.02, 0.4203
44.12, 0.4154
44.22, 0.4154
44.32, 0.4106
44.42, 0.4057
44.52, 0.4008
44.63, 0.4008
44.72, 0.4008
44.83, 0.4008
44.93, 0.4008
45.03, 0.4057
45.13, 0.4106
45.23, 0.4106
45.34, 0.4154
45.44, 0.4154
45.54, 0.4203
45.64, 0.4203
45.74, 0.4154
45.84, 0.4106
45.94, 0.4057
46.04, 0.4008
46.15, 0.4008
46.24, 0.4008
46.35, 0.4008
46.45, 0.4057
46.55, 0.4057
46.65, 0.4106
46.75, 0.4106
46.86, 0.4154
46.96, 0.4203
47.05, 0.4203
47.15, 0.4203
47.26, 0.4106
47.36, 0.4057
47.46, 0.4057
47.56, 0.4008
47.66, 0.4008
47.76, 0.4008
47.87, 0.4008
47.97, 0.4008
48.07, 0.4008
48.17, 0.4057
48.27, 0.4106
48.37, 0.4154
48.47, 0.4203
48.58, 0.4203
48.68, 0.4203
48.78, 0.4154
48.88, 0.4106
48.98, 0.4057
49.08, 0.4057
49.18, 0.4008
49.29, 0.4008
49.39, 0.4008
49.49, 0.4008
49.59, 0.4057
49.69, 0.4057
49.79, 0.4106
49.89, 0.4154
49.99, 0.4203
50.10, 0.4203
50.19, 0.4203
50.29, 0.4154
50.39, 0.4154
50.50, 0.4106
50.60, 0.4057
50.70, 0.4008
50.80, 0.3959
50.91, 0.4008
51.00, 0.4008
51.11, 0.4008
51.21, 0.4008
51.31, 0.4057
51.41, 0.4154
51.51, 0.4154
51.61, 0.4203
51.71, 0.4203
51.81, 0.4154
51.92, 0.4106
52.02, 0.4106
52.12, 0.4008
52.22, 0.4008
52.33, 0.4008
52.42, 0.4008
52.53, 0.4008
52.62, 0.4057
52.73, 0.4008
52.83, 0.4057
52.93, 0.4106
53.03, 0.4154
53.13, 0.4154
53.24, 0.4154
53.33, 0.4203
53.44, 0.4106
53.54, 0.4057
53.64, 0.4057
53.74, 0.4008
53.84, 0.4008
53.94, 0.4008
54.04, 0.4008
54.14, 0.4008
54.25, 0.4008
54.35, 0.4057
54.45, 0.4106
54.55, 0.4154
54.65, 0.4154
54.76, 0.4154
54.86, 0.4154
54.96, 0.4154
55.05, 0.4106
55.16, 0.4057
55.26, 0.4008
55.36, 0.4008
55.46, 0.4008
55.56, 0.4008
55.67, 0.4008
55.76, 0.4008
55.86, 0.4008
55.97, 0.4057
56.07, 0.4154
56.17, 0.4154
56.27, 0.4203
56.37, 0.4154
56.47, 0.4154
56.57, 0.4106
56.67, 0.4008
56.78, 0.4008
56.88, 0.4008
56.98, 0.4008
57.08, 0.4008
57.18, 0.4008
57.28, 0.4008
57.39, 0.4057
57.49, 0.4057
57.59, 0.4106
57.69, 0.4154
57.79, 0.4154
57.89, 0.4106
57.99, 0.4154
58.09, 0.4106
58.23, 0.4057
58.30, 0.4008
58.40, 0.3959
58.50, 0.3959
58.60, 0.3959
58.70, 0.3959
58.80, 0.3959
58.90, 0.4008
59.01, 0.4057
59.11, 0.4057
59.21, 0.4106
59.31, 0.4154
59.41, 0.4106
59.51, 0.4106
59.62, 0.4106
59.71, 0.4057
59.82, 0.4008
59.92, 0.3959
60.02, 0.3959
60.12, 0.3959
60.23, 0.3959
60.32, 0.3959
60.43, 0.4008
60.52, 0.4008
60.62, 0.4008
60.73, 0.4057
60.83, 0.4106
60.93, 0.4154
61.03, 0.4154
61.13, 0.4106
61.24, 0.4057
61.34, 0.4008
61.44, 0.4008
61.54, 0.3959
61.64, 0.3910
61.74, 0.3959
61.84, 0.3959
61.94, 0.3959
62.04, 0.4008
62.14, 0.4008
62.25, 0.4057
62.35, 0.4106
62.45, 0.4106
62.55, 0.4106
62.65, 0.4106
62.76, 0.4057
62.85, 0.4057
62.96, 0.4008
63.05, 0.3959
63.16, 0.3959
63.26, 0.3959
63.36, 0.3959
63.46, 0.3959
63.56, 0.4008
63.67, 0.4057
63.77, 0.4057
63.87, 0.4106
63.97, 0.4106
64.07, 0.4154
64.17, 0.4106
64.28, 0.4106
64.38, 0.4057
64.48, 0.4008
64.58, 0.3959
64.68, 0.3959
64.78, 0.3959
64.88, 0.3959
64.98, 0.3959
65.09, 0.3959
65.19, 0.4008
65.29, 0.4057
65.39, 0.4106
65.49, 0.4106
65.59, 0.4106
65.69, 0.4154
65.80, 0.4106
65.89, 0.4057
66.00, 0.4008
66.09, 0.3959
66.20, 0.3959
66.30, 0.3959
66.40, 0.3959
66.50, 0.3910
66.60, 0.4008
66.70, 0.4008
66.80, 0.4057
66.91, 0.4106
67.01, 0.4154
67.11, 0.4154
67.21, 0.4106
67.32, 0.4106
67.41, 0.4057
67.51, 0.4008
67.61, 0.4008
67.71, 0.3959
67.82, 0.3959
67.92, 0.3959
68.02, 0.4008
68.12, 0.3959
68.22, 0.4008
68.33, 0.4008
68.43, 0.4057
68.53, 0.4106
68.63, 0.4106
68.73, 0.4154
68.83, 0.4106
68.93, 0.4057
69.03, 0.4008
69.13, 0.4008
69.24, 0.3959
69.34, 0.3910
69.44, 0.3959
69.54, 0.3959
69.64, 0.3959
69.74, 0.3959
69.84, 0.4008
69.94, 0.4057
70.05, 0.4106
70.15, 0.4154
70.25, 0.4106
70.35, 0.4106
70.46, 0.4057
70.55, 0.4008
70.66, 0.4008
70.76, 0.3959
70.86, 0.3959
70.96, 0.3959
71.06, 0.3959
71.16, 0.3959
71.26, 0.3959
71.36, 0.4008
71.46, 0.4057
71.57, 0.4106
71.67, 0.4106
71.77, 0.4106
71.87, 0.4106
71.97, 0.4057
72.07, 0.4008
72.17, 0.3959
72.27, 0.3910
72.38, 0.3959
72.47, 0.3959
72.58, 0.3910
72.68, 0.3910
72.78, 0.4008
72.88, 0.4008
72.98, 0.4057
73.09, 0.4057
73.19, 0.4106
73.29, 0.4106
73.39, 0.4106
73.49, 0.4008
73.59, 0.4008
73.69, 0.3959
73.79, 0.3910
73.89, 0.3910
74.00, 0.3910
74.10, 0.3910
74.20, 0.3910
74.30, 0.3959
74.40, 0.4008
74.50, 0.4008
74.60, 0.4057
74.70, 0.4106
74.81, 0.4106
74.91, 0.4106
75.01, 0.4057
75.11, 0.4008
75.21, 0.3959
75.31, 0.3910
75.41, 0.3910
75.51, 0.3910
75.62, 0.3959
75.72, 0.3959
75.82, 0.3959
75.92, 0.3959
76.02, 0.4008
76.12, 0.4106
76.23, 0.4106
76.32, 0.4106
76.43, 0.4057
76.53, 0.4008
76.63, 0.3959
76.73, 0.3959
76.83, 0.3910
76.94, 0.3910
77.03, 0.3910
77.14, 0.3910
77.24, 0.3959
77.34, 0.3959
77.44, 0.3959
77.54, 0.4008
77.64, 0.4057
77.75, 0.4106
77.84, 0.4106
77.95, 0.4106
78.05, 0.4057
78.15, 0.4008
78.25, 0.3959
78.35, 0.3910
78.45, 0.3910
78.56, 0.3959
78.66, 0.3910
78.76, 0.3910
78.86, 0.3959
78.96, 0.3959
79.06, 0.4057
79.16, 0.4057
79.27, 0.4057
79.37, 0.4106
79.47, 0.4057
79.57, 0.4008
79.67, 0.3959
79.77, 0.3910
79.87, 0.3910
79.97, 0.3910
80.07, 0.3910
80.17, 0.3910
80.28, 0.3910
80.38, 0.3959
80.48, 0.3959
80.58, 0.4008
80.68, 0.4057
80.79, 0.4057
80.89, 0.4057
80.98, 0.4057
81.09, 0.4008
81.19, 0.3959
81.29, 0.3910
81.39, 0.3910
81.49, 0.3861
81.60, 0.3910
81.69, 0.3910
81.80, 0.3910
81.90, 0.3959
82.00, 0.4008
82.10, 0.4057
82.20, 0.4057
82.31, 0.4057
82.41, 0.4057
82.50, 0.3959
82.60, 0.3959
82.71, 0.3910
82.81, 0.3910
82.91, 0.3861
83.01, 0.3861
83.11, 0.3861
83.22, 0.3910
83.32, 0.3910
83.42, 0.3959
83.52, 0.3959
83.62, 0.4057
83.72, 0.4057
83.82, 0.4057
83.92, 0.4008
84.03, 0.4008
84.12, 0.3959
84.23, 0.3861
84.33, 0.3910
84.43, 0.3861
84.53, 0.3861
84.63, 0.3861
84.73, 0.3910
84.83, 0.3959
84.94, 0.3959
85.05, 0.4057
85.14, 0.4057
85.24, 0.4057
85.34, 0.4008
85.44, 0.4057
85.55, 0.3959
85.65, 0.3910
85.74, 0.3861
85.85, 0.3812
85.95, 0.3861
86.05, 0.3861
86.15, 0.3861
86.25, 0.3910
86.35, 0.3910
86.45, 0.4008
86.56, 0.4057
86.65, 0.4057
86.76, 0.4008
86.86, 0.4008
86.96, 0.3959
87.07, 0.3910
87.16, 0.3861
87.27, 0.3812
87.37, 0.3861
87.47, 0.3861
87.57, 0.3910
87.67, 0.3910
87.77, 0.3910
87.87, 0.3959
87.98, 0.3959
88.07, 0.4008
88.18, 0.4057
88.28, 0.4057
88.38, 0.3959
88.48, 0.3959
88.58, 0.3910
88.68, 0.3861
88.78, 0.3861
88.89, 0.3861
88.99, 0.3861
89.09, 0.3861
89.19, 0.3861
89.29, 0.3959
89.39, 0.3959
89.49, 0.4008
89.60, 0.4008
89.70, 0.4008
89.80, 0.4008
89.90, 0.3959
90.00, 0.3861
90.10, 0.3812
90.20, 0.3812
90.31, 0.3861
90.41, 0.3812
90.51, 0.3861
90.60, 0.3861
90.71, 0.3910
90.81, 0.3959
90.91, 0.4008
91.01, 0.4008
91.12, 0.4008
91.21, 0.4008
91.31, 0.3959
91.42, 0.3959
91.52, 0.3861
91.62, 0.3812
91.72, 0.3812
91.83, 0.3812
91.92, 0.3861
92.02, 0.3861
92.13, 0.3910
92.23, 0.3959
92.33, 0.3959
92.43, 0.4057
92.53, 0.4008
92.63, 0.4008
92.74, 0.3959
92.83, 0.3910
92.94, 0.3861
93.04, 0.3861
93.14, 0.3861
93.24, 0.3861
93.34, 0.3861
93.44, 0.3910
93.54, 0.3910
93.64, 0.3910
93.75, 0.3959
93.86, 0.4008
93.95, 0.4008
94.05, 0.3959
94.15, 0.3959
94.26, 0.3910
94.36, 0.3861
94.46, 0.3861
94.56, 0.3861
94.66, 0.3861
94.76, 0.3861
94.86, 0.3861
94.96, 0.4252
95.07, 0.4888
95.16, 0.5425
95.27, 0.5816
95.37, 0.6012
95.47, 0.6061
95.57, 0.6061
95.67, 0.6012
95.77, 0.5963
95.87, 0.5963
95.97, 0.5963
96.07, 0.5914
96.18, 0.5914
96.28, 0.5914
96.38, 0.5865
96.48, 0.5914
96.59, 0.5914
96.68, 0.5963
96.79, 0.5963
96.89, 0.5914
96.99, 0.5865
97.09, 0.5767
97.19, 0.5767
97.29, 0.5670
97.39, 0.5670
97.49, 0.5670
97.60, 0.5670
97.70, 0.5670
97.80, 0.5670
97.90, 0.5718
98.00, 0.5718
98.10, 0.5816
98.20, 0.5816
98.30, 0.5816
98.41, 0.5718
98.51, 0.5718
98.61, 0.5621
98.71, 0.5621
98.81, 0.5621
98.92, 0.5572
99.01, 0.5621
99.12, 0.5621
99.22, 0.5621
99.32, 0.5670
99.42, 0.5670
99.52, 0.5767
99.62, 0.5718
99.73, 0.5670
99.83, 0.5621
99.93, 0.5572
100.03, 0.5523
100.13, 0.5523
100.23, 0.5474
100.34, 0.5523
100.43, 0.5474
100.54, 0.5523
100.64, 0.5523
100.74, 0.5572
100.84, 0.5572
100.94, 0.5621
101.04, 0.5621
101.14, 0.5621
101.25, 0.5572
101.35, 0.5523
101.45, 0.5425
101.55, 0.5425
101.65, 0.5474
101.75, 0.5425
101.85, 0.5425
101.95, 0.5474
102.06, 0.5474
102.16, 0.5523
102.26, 0.5523
102.36, 0.5572
102.46, 0.5572
102.56, 0.5572
102.67, 0.5523
102.76, 0.5474
102.87, 0.5474
102.97, 0.5474
103.07, 0.5425
103.17, 0.5376
103.28, 0.5376
103.37, 0.5376
103.47, 0.5425
103.58, 0.5474
103.68, 0.5523
103.78, 0.5523
103.88, 0.5523
103.98, 0.5523
104.08, 0.5474
104.18, 0.5474
104.28, 0.5376
104.39, 0.5376
104.49, 0.5376
104.59, 0.5327
104.69, 0.5327
104.79, 0.5376
104.89, 0.5376
104.99, 0.5376
105.09, 0.5425
105.20, 0.5523
105.30, 0.5523
105.40, 0.5523
105.50, 0.5474
105.60, 0.5425
105.71, 0.5376
105.80, 0.5327
105.91, 0.5327
106.01, 0.5327
106.11, 0.5327
106.21, 0.5327
106.31, 0.5327
106.42, 0.5376
106.51, 0.5425
106.61, 0.5474
106.72, 0.5474
106.82, 0.5474
106.92, 0.5376
107.02, 0.5376
107.12, 0.5327
107.22, 0.5279
107.32, 0.5279
107.43, 0.5279
107.53, 0.5279
107.63, 0.5279
107.73, 0.5327
107.83, 0.5327
107.93, 0.5425
108.04, 0.5425
108.13, 0.5425
108.24, 0.5425
108.34, 0.5425
108.44, 0.5327
108.54, 0.5327
108.64, 0.5279
108.74, 0.5279
108.84, 0.5279
108.95, 0.5279
109.05, 0.5327
109.15, 0.5327
109.25, 0.5327
109.35, 0.5376
109.45, 0.5425
109.55, 0.5425
109.66, 0.5425
109.75, 0.5376
109.86, 0.5376
109.96, 0.5425
110.06, 0.5327
110.16, 0.5279
110.26, 0.5279
110.36, 0.5279
110.47, 0.5279
110.57, 0.5279
110.67, 0.5327
110.77, 0.5376
110.87, 0.5767
110.97, 0.6256
111.08, 0.6549
111.18, 0.6794
111.28, 0.6843
111.38, 0.6843
111.48, 0.6843
111.58, 0.6843
111.69, 0.6745
111.78, 0.6745
111.88, 0.6745
111.99, 0.6696
112.09, 0.6745
112.19, 0.6745
112.29, 0.6794
112.39, 0.6794
112.49, 0.6794
112.59, 0.6745
112.69, 0.6696
112.80, 0.6647
112.90, 0.6598
113.00, 0.6549
113.10, 0.6549
113.20, 0.6500
113.31, 0.6500
113.41, 0.6500
113.51, 0.6549
113.61, 0.6549
113.71, 0.6549
113.81, 0.6598
113.92, 0.6598
114.01, 0.6598
114.12, 0.6598
114.22, 0.6549
114.32, 0.6452
114.42, 0.6452
114.52, 0.6403
114.62, 0.6403
114.72, 0.6403
114.82, 0.6403
114.93, 0.6403
115.03, 0.6452
115.13, 0.6452
115.23, 0.6500
115.33, 0.6549
115.43, 0.6549
115.54, 0.6549
115.63, 0.6500
115.74, 0.6452
115.84, 0.6403
115.94, 0.6354
116.04, 0.6354
116.14, 0.6354
116.25, 0.6354
116.35, 0.6354
116.45, 0.6354
116.55, 0.6403
116.65, 0.6403
116.75, 0.6500
116.85, 0.6500
116.95, 0.6500
117.06, 0.6500
117.16, 0.6403
117.26, 0.6403
117.36, 0.6354
117.46, 0.6403
117.56, 0.6305
117.66, 0.6305
117.76, 0.6305
117.87, 0.6354
117.96, 0.6354
118.07, 0.6403
118.17, 0.6452
118.27, 0.6452
118.37, 0.6452
118.47, 0.6452
118.57, 0.6403
118.68, 0.6403
118.78, 0.6354
118.88, 0.6305
118.98, 0.6256
119.08, 0.6256
119.18, 0.6305
119.28, 0.6305
119.38, 0.6305
119.49, 0.6354
119.59, 0.6354
119.69, 0.6403
119.79, 0.6452
119.89, 0.6452
119.99, 0.6403
120.09, 0.6403
120.20, 0.6354
120.30, 0.6305
120.40, 0.6305
120.50, 0.6305
120.60, 0.6305
120.70, 0.6256
120.80, 0.6256
120.91, 0.6256
121.01, 0.6305
121.11, 0.6354
121.21, 0.6403
121.31, 0.6403
121.41, 0.6452
121.52, 0.6403
121.62, 0.6354
121.72, 0.6305
121.82, 0.6305
121.92, 0.6256
122.02, 0.6207
122.12, 0.6256
122.22, 0.6256
122.33, 0.6256
122.43, 0.6256
122.52, 0.6305
122.63, 0.6354
122.73, 0.6403
122.83, 0.6403
122.93, 0.6403
123.03, 0.6403
123.13, 0.6354
123.24, 0.6256
123.34, 0.6305
123.44, 0.6256
123.54, 0.6207
123.64, 0.6207
123.74, 0.6256
123.84, 0.6256
123.95, 0.6256
124.05, 0.6305
124.15, 0.6354
124.25, 0.6354
124.35, 0.6354
124.45, 0.6354
124.55, 0.6305
124.65, 0.6354
124.76, 0.6305
124.86, 0.6256
124.96, 0.6256
125.06, 0.6256
125.16, 0.6256
125.26, 0.6256
125.36, 0.6256
125.47, 0.6305
125.57, 0.6305
125.66, 0.6354
125.77, 0.6354
125.87, 0.6354
125.98, 0.6256
126.07, 0.6403
126.17, 0.6696
126.27, 0.6989
126.38, 0.7283
126.48, 0.7380
126.58, 0.7478
126.68, 0.7478
126.78, 0.7478
126.88, 0.7527
126.99, 0.7527
127.09, 0.7527
127.19, 0.7576
127.29, 0.7576
127.39, 0.7576
127.49, 0.7625
127.59, 0.7527
127.70, 0.7429
127.80, 0.7429
127.89, 0.7380
128.00, 0.7331
128.10, 0.7380
128.20, 0.7380
128.30, 0.7380
128.40, 0.7380
128.51, 0.7380
128.61, 0.7429
128.71, 0.7429
128.81, 0.7478
128.91, 0.7478
129.01, 0.7478
129.11, 0.7429
129.22, 0.7380
129.32, 0.7331
129.42, 0.7283
129.52, 0.7234
129.62, 0.7234
129.72, 0.7234
129.83, 0.7234
129.93, 0.7283
130.04, 0.7283
130.16, 0.7283
130.23, 0.7380
130.34, 0.7380
130.44, 0.7380
130.53, 0.7331
130.64, 0.7331
130.74, 0.7331
130.84, 0.7234
130.94, 0.7234
131.04, 0.7185
131.14, 0.7185
131.24, 0.7185
131.34, 0.7136
131.44, 0.7185
131.55, 0.7234
131.65, 0.7234
131.75, 0.7283
131.85, 0.7331
131.95, 0.7331
132.06, 0.7283
132.16, 0.7234
132.26, 0.7234
132.36, 0.7136
132.46, 0.7136
132.56, 0.7136
132.66, 0.7136
132.76, 0.7136
132.87, 0.7136
132.97, 0.7136
133.07, 0.7185
133.17, 0.7234
133.27, 0.7283
133.37, 0.7283
133.47, 0.7283
133.57, 0.7283
133.68, 0.7185
133.77, 0.7185
133.87, 0.7136
133.98, 0.7136
134.08, 0.7136
134.19, 0.7087
134.28, 0.7136
134.38, 0.7087
134.49, 0.7234
134.59, 0.7136
134.69, 0.7185
134.79, 0.7234
134.89, 0.7234
134.99, 0.7185
135.09, 0.7185
135.19, 0.7185
135.30, 0.7136
135.40, 0.7087
135.50, 0.7087
135.60, 0.7038
135.70, 0.7038
135.80, 0.7038
135.90, 0.7038
136.01, 0.7087
136.11, 0.7087
136.21, 0.7136
136.31, 0.7185
136.41, 0.7185
136.51, 0.7185
136.62, 0.7185
136.72, 0.7185
136.82, 0.7136
136.92, 0.7087
137.02, 0.7087
137.12, 0.7038
137.22, 0.7038
137.32, 0.7038
137.42, 0.7038
137.53, 0.7087
137.63, 0.7087
137.73, 0.7136
137.83, 0.7234
137.93, 0.7185
138.03, 0.7283
138.13, 0.7185
138.23, 0.7136
138.34, 0.7087
138.44, 0.7087
138.54, 0.7038
138.64, 0.7087
138.74, 0.7038
138.84, 0.7087
138.94, 0.7136
139.04, 0.7136
139.15, 0.7185
139.25, 0.7136
139.35, 0.7234
139.45, 0.7185
139.55, 0.7234
139.66, 0.7478
139.76, 0.7771
139.86, 0.8065
139.96, 0.8260
140.06, 0.8407
140.17, 0.8602
140.26, 0.8749
140.36, 0.8895
140.46, 0.8993
140.56, 0.9140
140.66, 0.9189
140.77, 0.9286
140.87, 0.9384
140.97, 0.9384
141.07, 0.9384
141.17, 0.9384
141.27, 0.9335
141.37, 0.9335
141.48, 0.9286
141.58, 0.9335
141.68, 0.9238
141.78, 0.9238
141.88, 0.9238
141.98, 0.9286
142.08, 0.9238
142.19, 0.9286
142.29, 0.9286
142.39, 0.9335
142.49, 0.9384
142.59, 0.9384
142.69, 0.9335
142.79, 0.9286
142.90, 0.9238
143.00, 0.9189
143.10, 0.9140
143.20, 0.9140
143.30, 0.9189
143.40, 0.9140
143.51, 0.9091
143.60, 0.9189
143.71, 0.9189
143.81, 0.9286
143.91, 0.9335
144.01, 0.9335
144.11, 0.9335
144.21, 0.9335
144.32, 0.9286
144.42, 0.9189
144.52, 0.9189
144.62, 0.9140
144.72, 0.9140
144.82, 0.9140
144.92, 0.9091
145.02, 0.9238
145.12, 0.9140
145.22, 0.9189
145.32, 0.9238
145.43, 0.9286
145.53, 0.9238
145.63, 0.9286
145.73, 0.9238
145.83, 0.9189
145.94, 0.9140
146.04, 0.9091
146.14, 0.9042
146.24, 0.9042
146.34, 0.9042
146.44, 0.9091
146.54, 0.9091
146.65, 0.9140
146.75, 0.9189
146.85, 0.9189
146.95, 0.9238
147.05, 0.9238
147.15, 0.9238
147.25, 0.9189
147.36, 0.9140
147.45, 0.9091
147.55, 0.9042
147.66, 0.9091
147.76, 0.9042
147.86, 0.9042
147.96, 0.9042
148.06, 0.9091
148.17, 0.9091
148.27, 0.9140
148.37, 0.9189
148.47, 0.9189
148.57, 0.9238
148.67, 0.9189
148.77, 0.9140
148.87, 0.9091
148.98, 0.9091
149.08, 0.8993
149.18, 0.9042
149.28, 0.9042
149.38, 0.9091
149.48, 0.9091
149.58, 0.9140
149.69, 0.9140
149.78, 0.9140
149.89, 0.9189
149.99, 0.9140
150.09, 0.9189
150.19, 0.9140
150.29, 0.9140
150.39, 0.9091
150.49, 0.9140
150.60, 0.9091
150.70, 0.9091
150.80, 0.9091
150.90, 0.9091
151.00, 0.9091
151.11, 0.9091
151.21, 0.9042
151.30, 0.9091
151.41, 0.9091
151.51, 0.9042
151.61, 0.9042
151.71, 0.8993
151.82, 0.8993
151.92, 0.9091
152.02, 0.9433
152.13, 0.9531
152.22, 0.9629
152.32, 0.9824
152.42, 1.0068
152.52, 1.0264
152.62, 1.0313
152.72, 1.0411
152.83, 1.0508
152.93, 1.0606
153.03, 1.0704
153.13, 1.0802
153.23, 1.0704
153.34, 1.0704
153.44, 1.0655
153.53, 1.0606
153.64, 1.0606
153.74, 1.0606
153.84, 1.0606
153.94, 1.0704
154.04, 1.0704
154.14, 1.0802
154.25, 1.0802
154.35, 1.0850
154.45, 1.0850
154.55, 1.0850
154.65, 1.0802
154.75, 1.0802
154.85, 1.0753
154.96, 1.0753
155.06, 1.0704
155.16, 1.0753
155.26, 1.0704
155.36, 1.0753
155.46, 1.0753
155.57, 1.0802
155.67, 1.0802
155.76, 1.0802
155.87, 1.0850
155.97, 1.0850
156.07, 1.0850
156.17, 1.0802
156.28, 1.0802
156.37, 1.0704
156.48, 1.0704
156.58, 1.0704
156.68, 1.0704
156.78, 1.0704
156.88, 1.0753
156.98, 1.0753
157.08, 1.0753
157.19, 1.0802
157.29, 1.0802
157.39, 1.0802
157.49, 1.0802
157.59, 1.0802
157.69, 1.0753
157.79, 1.0704
157.90, 1.0704
158.00, 1.0655
158.10, 1.0655
158.20, 1.0655
158.30, 1.0655
158.40, 1.0704
158.51, 1.0753
158.60, 1.0753
158.71, 1.0850
158.81, 1.0802
158.91, 1.0850
159.01, 1.0850
159.11, 1.0802
159.21, 1.0753
159.31, 1.0704
159.42, 1.0655
159.52, 1.0655
159.61, 1.0655
159.72, 1.0655
159.82, 1.0655
159.92, 1.0704
160.03, 1.0704
160.13, 1.0753
160.22, 1.0802
160.33, 1.0802
160.43, 1.0802
160.53, 1.0753
160.63, 1.0753
160.73, 1.0704
160.84, 1.0655
160.93, 1.0655
161.03, 1.0557
161.14, 1.0606
161.24, 1.0655
161.34, 1.0655
161.44, 1.0655
161.54, 1.0655
161.64, 1.0704
161.74, 1.0753
161.85, 1.0704
161.95, 1.0753
162.05, 1.0655
162.16, 1.0655
162.25, 1.0655
162.35, 1.0606
162.45, 1.0655
162.55, 1.0704
162.66, 1.0655
162.76, 1.0606
162.86, 1.0606
162.96, 1.0606
163.06, 1.0655
163.16, 1.0704
163.26, 1.0704
163.37, 1.0704
163.46, 1.0704
163.57, 1.0655
163.67, 1.0606
163.77, 1.0606
163.87, 1.0655
163.97, 1.0655
164.07, 1.0606
164.18, 1.0606
164.28, 1.0606
164.38, 1.0557
164.48, 1.0557
164.59, 1.0557
164.68, 1.0606
164.79, 1.0606
164.89, 1.0802
164.99, 1.0899
165.09, 1.1046
165.19, 1.1046
165.29, 1.1095
165.39, 1.1144
165.50, 1.1241
165.59, 1.1339
165.70, 1.1388
165.80, 1.1437
165.90, 1.1437
166.00, 1.1437
166.10, 1.1486
166.20, 1.1437
166.31, 1.1437
166.41, 1.1437
166.51, 1.1437
166.61, 1.1339
166.71, 1.1339
166.81, 1.1290
166.92, 1.1241
167.02, 1.1241
167.12, 1.1241
167.22, 1.1241
167.32, 1.1290
167.42, 1.1241
167.52, 1.1290
167.62, 1.1290
167.72, 1.1339
167.82, 1.1290
167.96, 1.1241
168.03, 1.1193
168.13, 1.1193
168.23, 1.1144
168.33, 1.1144
168.44, 1.1144
168.54, 1.1144
168.63, 1.1095
168.74, 1.1144
168.84, 1.1144
168.94, 1.1193
169.04, 1.1241
169.14, 1.1193
169.25, 1.1241
169.35, 1.1193
169.45, 1.1144
169.55, 1.1241
169.65, 1.1095
169.75, 1.1046
169.85, 1.1046
169.95, 1.0997
170.05, 1.0948
170.16, 1.0997
170.26, 1.1046
170.36, 1.1046
170.46, 1.1095
170.56, 1.1144
170.66, 1.1144
170.77, 1.1144
170.87, 1.1144
170.97, 1.1046
171.07, 1.1046
171.17, 1.0997
171.27, 1.0997
171.37, 1.0948
171.48, 1.0948
171.58, 1.0948
171.67, 1.0997
171.78, 1.0948
171.88, 1.0997
171.98, 1.1046
172.09, 1.1046
172.19, 1.1095
172.29, 1.1095
172.39, 1.1046
172.49, 1.0997
172.59, 1.0997
172.69, 1.0948
172.79, 1.0948
172.89, 1.0948
172.99, 1.0899
173.09, 1.0997
173.20, 1.0948
173.30, 1.0948
173.40, 1.0997
173.50, 1.0997
173.60, 1.0997
173.70, 1.0997
173.81, 1.1046
173.90, 1.0997
174.01, 1.0997
174.11, 1.0948
174.21, 1.0899
174.32, 1.0850
174.41, 1.0899
174.52, 1.0850
174.61, 1.0899
174.72, 1.0899
174.82, 1.0899
174.93, 1.0948
175.02, 1.0948
175.13, 1.0997
175.23, 1.0997
175.33, 1.0997
175.43, 1.0948
175.53, 1.0899
175.63, 1.0899
175.73, 1.0850
175.86, 1.0850
175.94, 1.0802
176.04, 1.0850
176.14, 1.0850
176.24, 1.0850
176.34, 1.0899
176.44, 1.0948
176.54, 1.0997
176.64, 1.1046
176.74, 1.0997
176.85, 1.0899
176.94, 1.0850
177.05, 1.0704
177.16, 1.0704
177.25, 1.0655
177.36, 1.0606
177.46, 1.0508
177.56, 1.0508
177.66, 1.0459
177.76, 1.0606
177.86, 1.0802
177.96, 1.1046
178.07, 1.1193
178.16, 1.1339
178.27, 1.1388
178.37, 1.1535
178.47, 1.1535
178.57, 1.1535
178.67, 1.1486
178.78, 1.1486
178.88, 1.1486
178.97, 1.1486
179.08, 1.1437
179.18, 1.1437
179.28, 1.1486
179.38, 1.1486
179.48, 1.1486
179.58, 1.1584
179.68, 1.1535
179.78, 1.1584
179.89, 1.1535
179.99, 1.1486
180.09, 1.1535
180.19, 1.1437
180.29, 1.1388
180.39, 1.1388
180.49, 1.1339
180.60, 1.1339
180.70, 1.1388
180.80, 1.1388
180.90, 1.1388
181.00, 1.1437
181.10, 1.1486
181.21, 1.1486
181.31, 1.1486
181.40, 1.1437
181.51, 1.1388
181.61, 1.1388
181.71, 1.1339
181.81, 1.1339
181.91, 1.1339
182.01, 1.1339
182.12, 1.1290
182.21, 1.1339
182.33, 1.1388
182.42, 1.1339
182.52, 1.1388
182.62, 1.1388
182.72, 1.1388
182.83, 1.1388
182.93, 1.1388
183.03, 1.1339
183.13, 1.1290
183.23, 1.1290
183.33, 1.1290
183.43, 1.1290
183.54, 1.1290
183.64, 1.1339
183.74, 1.1339
183.84, 1.1339
183.94, 1.1388
184.04, 1.1388
184.15, 1.1388
184.24, 1.1388
184.34, 1.1388
184.45, 1.1339
184.55, 1.1339
184.65, 1.1241
184.75, 1.1290
184.85, 1.1290
184.95, 1.1290
185.06, 1.1241
185.16, 1.1241
185.26, 1.1193
185.36, 1.1193
185.46, 1.1241
185.56, 1.1193
185.66, 1.1241
185.76, 1.1241
185.87, 1.1241
185.97, 1.1241
186.07, 1.1193
186.17, 1.1144
186.27, 1.1144
186.37, 1.1144
186.47, 1.1144
186.57, 1.1144
186.68, 1.1144
186.78, 1.1144
186.88, 1.1193
186.98, 1.1241
187.08, 1.1339
187.18, 1.1241
187.29, 1.1241
187.39, 1.1144
187.49, 1.1144
187.59, 1.1046
187.69, 1.1095
187.79, 1.1095
187.89, 1.1046
188.00, 1.1046
188.10, 1.1046
188.20, 1.1046
188.30, 1.1046
188.40, 1.0997
188.51, 1.1046
188.61, 1.1046
188.71, 1.0948
188.81, 1.0899
188.91, 1.0850
189.01, 1.0802
189.12, 1.0753
189.21, 1.0753
189.31, 1.0850
189.42, 1.1046
189.52, 1.1388
189.61, 1.1535
189.72, 1.1681
189.82, 1.1828
189.93, 1.1828
190.03, 1.1926
190.13, 1.2072
190.22, 1.2170
190.32, 1.2219
190.43, 1.2219
190.53, 1.2170
190.64, 1.2121
190.74, 1.2023
190.83, 1.2023
190.93, 1.2023
191.03, 1.1975
191.13, 1.2023
191.24, 1.2023
191.34, 1.2072
191.44, 1.2072
191.55, 1.2121
191.64, 1.2121
191.75, 1.2121
191.85, 1.2121
191.95, 1.2072
192.05, 1.2023
192.15, 1.1975
192.25, 1.1975
192.35, 1.1975
192.46, 1.1975
192.56, 1.1926
192.65, 1.1926
192.76, 1.1975
192.86, 1.2023
192.96, 1.2023
193.07, 1.2072
193.17, 1.2072
193.26, 1.2121
193.37, 1.2072
193.47, 1.2023
193.57, 1.1975
193.67, 1.1926
193.78, 1.1926
193.89, 1.1877
193.97, 1.1926
194.08, 1.2072
194.18, 1.1975
194.28, 1.1926
194.38, 1.1975
194.48, 1.2023
194.58, 1.2023
194.69, 1.2072
194.78, 1.2121
194.89, 1.2072
194.99, 1.2072
195.09, 1.1975
195.19, 1.1975
195.29, 1.1926
195.40, 1.1926
195.50, 1.1926
195.60, 1.1926
195.70, 1.1975
195.80, 1.2023
195.90, 1.2072
196.00, 1.2121
196.10, 1.2121
196.20, 1.2170
196.30, 1.2170
196.40, 1.2121
196.51, 1.2072
196.61, 1.2023
196.71, 1.1975
196.81, 1.1975
196.91, 1.1926
197.02, 1.1975
197.12, 1.1926
197.22, 1.2023
197.32, 1.2023
197.42, 1.2023
197.52, 1.2121
197.62, 1.2219
197.72, 1.2170
197.82, 1.2121
197.93, 1.2072
198.03, 1.2023
198.14, 1.1926
198.23, 1.1926
198.33, 1.1926
198.44, 1.1926
198.54, 1.1926
198.64, 1.1926
198.74, 1.1975
198.84, 1.1975
198.94, 1.2023
199.04, 1.2072
199.15, 1.2121
199.25, 1.2121
199.35, 1.2121
199.45, 1.2023
199.55, 1.1975
199.65, 1.1877
199.75, 1.1877
199.85, 1.1877
199.96, 1.1877
200.05, 1.1877
200.16, 1.1926
200.26, 1.1975
200.36, 1.1975
200.46, 1.2023
200.56, 1.2072
200.66, 1.2121
200.76, 1.2072
200.87, 1.2072
200.97, 1.1975
201.07, 1.1926
201.17, 1.1926
201.27, 1.1877
201.38, 1.1877
201.47, 1.1828
201.57, 1.1877
201.68, 1.1877
201.78, 1.1926
201.88, 1.1975
201.98, 1.2023
202.09, 1.2023
202.19, 1.2121
202.28, 1.2072
202.39, 1.2023
202.49, 1.1975
202.59, 1.1926
202.69, 1.1877
202.80, 1.1877
202.89, 1.1877
203.00, 1.1877
203.09, 1.1779
203.20, 1.1877
203.29, 1.1926
203.40, 1.1975
203.50, 1.2023
203.60, 1.2072
203.70, 1.2072
203.82, 1.2023
203.91, 1.1975
204.01, 1.1926
204.11, 1.1877
204.21, 1.1877
204.31, 1.1828
204.41, 1.1828
204.51, 1.1877
204.62, 1.1926
204.72, 1.1877
204.82, 1.1877
204.92, 1.1926
205.02, 1.2023
205.12, 1.1975
205.23, 1.1975
205.33, 1.2023
205.43, 1.1975
205.53, 1.1926
205.63, 1.1828
205.73, 1.1828
205.84, 1.1828
205.93, 1.1828
206.03, 1.1828
206.13, 1.1877
206.24, 1.1877
206.34, 1.1926
206.44, 1.2023
206.54, 1.2072
206.64, 1.2023
206.74, 1.2072
206.84, 1.2023
206.94, 1.1975
207.05, 1.1926
207.15, 1.1877
207.25, 1.1877
207.35, 1.1926
207.45, 1.1877
207.55, 1.1926
207.66, 1.1926
207.76, 1.1975
207.86, 1.1975
207.96, 1.2072
208.06, 1.2072
208.16, 1.2121
208.26, 1.2072
208.36, 1.2023
208.47, 1.1926
208.57, 1.1877
208.67, 1.1828
208.77, 1.1877
208.87, 1.1828
208.97, 1.1828
209.07, 1.1877
209.18, 1.1877
209.28, 1.1926
209.38, 1.1975
209.48, 1.2023
209.58, 1.2023
209.68, 1.2072
209.79, 1.2023
209.88, 1.1975
209.99, 1.1926
210.09, 1.1877
210.19, 1.1828
210.29, 1.1828
210.39, 1.1828
210.49, 1.1877
210.59, 1.1877
210.70, 1.1877
210.80, 1.1926
210.90, 1.1975
211.00, 1.2023
211.10, 1.2023
211.20, 1.2023
211.31, 1.1975
211.41, 1.1926
211.51, 1.1926
211.61, 1.1975
211.71, 1.1877
211.81, 1.1779
211.91, 1.1779
212.02, 1.1828
212.12, 1.1779
212.21, 1.1877
212.32, 1.1877
212.42, 1.1926
212.52, 1.1975
212.63, 1.1975
212.73, 1.1975
212.83, 1.1975
212.92, 1.1926
213.03, 1.1828
213.13, 1.1828
213.25, 1.1828
213.33, 1.1828
213.44, 1.1779
213.53, 1.1779
213.63, 1.1779
213.74, 1.1877
213.84, 1.1926
213.94, 1.1975
214.04, 1.1975
214.14, 1.2023
214.24, 1.1975
214.35, 1.1926
214.45, 1.1877
214.55, 1.1779
214.65, 1.1828
214.75, 1.1779
214.85, 1.1779
214.96, 1.1828
215.06, 1.1779
215.16, 1.1926
215.26, 1.1877
215.36, 1.1926
215.46, 1.1926
215.56, 1.1975
215.66, 1.1926
215.77, 1.1926
215.86, 1.1877
215.96, 1.1828
216.07, 1.1779
216.17, 1.1779
216.27, 1.1730
216.37, 1.1730
216.48, 1.1730
216.58, 1.1779
216.68, 1.1828
216.78, 1.1877
216.88, 1.1926
216.98, 1.1975
217.08, 1.1926
217.19, 1.1926
217.29, 1.1877
217.38, 1.1877
217.49, 1.1779
217.59, 1.1730
217.69, 1.1730
217.79, 1.1730
217.90, 1.1779
217.99, 1.1779
218.09, 1.1828
218.20, 1.1828
218.30, 1.1877
218.40, 1.1975
218.50, 1.1926
218.61, 1.1926
218.70, 1.1926
218.81, 1.1828
218.91, 1.1779
219.01, 1.1730
219.11, 1.1632
219.21, 1.1681
219.31, 1.1730
219.41, 1.1730
219.51, 1.1779
219.62, 1.1779
219.72, 1.1828
219.82, 1.1877
219.92, 1.1926
220.02, 1.1926
220.12, 1.1926
220.22, 1.1877
220.32, 1.1828
220.43, 1.1779
220.53, 1.1730
220.63, 1.1681
220.73, 1.1681
220.83, 1.1730
220.93, 1.1730
221.03, 1.1779
221.13, 1.1828
221.24, 1.1877
221.34, 1.1926
221.44, 1.1926
221.54, 1.1926
221.64, 1.1877
221.75, 1.1828
221.84, 1.1779
221.95, 1.1730
222.05, 1.1681
222.15, 1.1730
222.25, 1.1681
222.35, 1.1681
222.46, 1.1730
222.55, 1.1730
222.66, 1.1779
222.76, 1.1828
222.86, 1.1877
222.96, 1.1877
223.06, 1.1877
223.16, 1.1779
223.27, 1.1779
223.37, 1.1681
223.47, 1.1632
223.57, 1.1632
223.67, 1.1681
223.77, 1.1681
223.87, 1.1681
223.97, 1.1681
224.08, 1.1730
224.17, 1.1730
224.28, 1.1828
224.38, 1.1877
224.48, 1.1828
224.58, 1.1828
224.68, 1.1730
224.79, 1.1730
224.89, 1.1632
224.99, 1.1632
225.09, 1.1632
225.19, 1.1632
225.29, 1.1681
225.39, 1.1681
225.49, 1.1730
225.59, 1.1730
225.69, 1.1828
225.80, 1.1828
225.90, 1.1828
226.00, 1.1779
226.10, 1.1779
226.20, 1.1681
226.30, 1.1632
226.41, 1.1632
226.51, 1.1632
226.61, 1.1584
226.71, 1.1632
226.81, 1.1632
226.91, 1.1681
227.02, 1.1681
227.12, 1.1779
227.22, 1.1779
227.32, 1.1828
227.42, 1.1779
227.52, 1.1779
227.62, 1.1632
227.73, 1.1632
227.83, 1.1584
227.93, 1.1584
228.03, 1.1584
228.13, 1.1584
228.23, 1.1632
228.33, 1.1632
228.44, 1.1681
228.54, 1.1730
228.64, 1.1779
228.74, 1.1828
228.84, 1.1779
228.94, 1.1779
229.04, 1.1730
229.14, 1.1779
229.24, 1.1632
229.34, 1.1584
229.45, 1.1535
229.55, 1.1584
229.65, 1.1535
229.75, 1.1584
229.85, 1.1632
229.96, 1.1632
230.05, 1.1730
230.16, 1.1730
230.26, 1.1779
230.36, 1.1779
230.46, 1.1730
230.56, 1.1681
230.66, 1.1584
230.76, 1.1535
230.87, 1.1584
230.97, 1.1584
231.07, 1.1535
231.17, 1.1535
231.27, 1.1584
231.38, 1.1632
231.48, 1.1681
231.57, 1.1730
231.68, 1.1730
231.78, 1.1779
231.88, 1.1730
231.98, 1.1681
232.09, 1.1584
232.19, 1.1535
232.29, 1.1535
232.39, 1.1486
232.49, 1.1535
232.59, 1.1535
232.69, 1.1632
232.79, 1.1584
232.90, 1.1632
232.99, 1.1681
233.10, 1.1730
233.19, 1.1632
233.30, 1.1681
233.40, 1.1632
233.50, 1.1632
233.60, 1.1535
233.70, 1.1486
233.81, 1.1486
233.91, 1.1535
234.01, 1.1486
234.11, 1.1535
234.21, 1.1535
234.32, 1.1632
234.41, 1.1632
234.51, 1.1681
234.61, 1.1681
234.72, 1.1730
234.82, 1.1681
234.92, 1.1632
235.02, 1.1584
235.12, 1.1535
235.22, 1.1486
235.33, 1.1486
235.42, 1.1486
235.53, 1.1486
235.63, 1.1535
235.73, 1.1584
235.83, 1.1584
235.94, 1.1632
236.04, 1.1730
236.13, 1.1828
236.24, 1.1681
236.34, 1.1584
236.44, 1.1535
236.54, 1.1486
236.64, 1.1437
236.75, 1.1437
236.84, 1.1437
236.95, 1.1437
237.05, 1.1486
237.15, 1.1486
237.25, 1.1535
237.35, 1.1584
237.46, 1.1632
237.55, 1.1632
237.65, 1.1681
237.76, 1.1584
237.86, 1.1584
237.96, 1.1535
238.06, 1.1486
238.17, 1.1388
238.27, 1.1437
238.36, 1.1437
238.47, 1.1486
238.57, 1.1486
238.67, 1.1535
238.77, 1.1584
238.87, 1.1584
238.98, 1.1632
239.08, 1.1632
239.18, 1.1584
239.28, 1.1535
239.38, 1.1486
239.48, 1.1437
239.59, 1.1437
239.68, 1.1486
239.79, 1.1437
239.88, 1.1388
239.99, 1.1437
240.09, 1.1437
240.19, 1.1486
240.29, 1.1535
240.40, 1.1584
240.49, 1.1584
240.59, 1.1584
240.70, 1.1535
240.80, 1.1486
240.90, 1.1437
241.01, 1.1388
241.10, 1.1388
241.20, 1.1388
241.30, 1.1388
241.40, 1.1437
241.51, 1.1437
241.61, 1.1486
241.71, 1.1486
241.81, 1.1535
241.91, 1.1584
242.02, 1.1584
242.12, 1.1535
242.21, 1.1486
242.32, 1.1437
242.42, 1.1388
242.52, 1.1339
242.62, 1.1339
242.72, 1.1339
242.82, 1.1388
242.93, 1.1388
243.03, 1.1437
243.13, 1.1437
243.23, 1.1584
243.33, 1.1535
243.43, 1.1535
243.53, 1.1486
243.64, 1.1486
243.74, 1.1388
243.84, 1.1388
243.94, 1.1339
244.04, 1.1339
244.14, 1.1290
244.24, 1.1339
244.35, 1.1388
244.45, 1.1437
244.55, 1.1437
244.65, 1.1486
244.75, 1.1535
244.86, 1.1535
244.96, 1.1535
245.05, 1.1486
245.16, 1.1339
245.25, 1.1388
245.36, 1.1339
245.46, 1.1339
245.56, 1.1339
245.66, 1.1290
245.76, 1.1339
245.86, 1.1339
245.97, 1.1388
246.07, 1.1437
246.17, 1.1486
246.27, 1.1486
246.37, 1.1486
246.47, 1.1437
246.57, 1.1388
246.68, 1.1437
246.78, 1.1290
246.88, 1.1290
246.98, 1.1241
247.08, 1.1241
247.18, 1.1193
247.28, 1.1290
247.39, 1.1290
247.49, 1.1339
247.59, 1.1388
247.69, 1.1437
247.79, 1.1437
247.90, 1.1437
247.99, 1.1388
248.09, 1.1339
248.20, 1.1241
248.30, 1.1241
248.40, 1.1241
248.50, 1.1193
248.60, 1.1241
248.71, 1.1290
248.80, 1.1290
248.91, 1.1339
249.01, 1.1437
249.11, 1.1437
249.21, 1.1486
249.31, 1.1486
249.41, 1.1437
249.51, 1.1388
249.62, 1.1339
249.72, 1.1290
249.82, 1.1241
249.92, 1.1241
250.02, 1.1241
250.12, 1.1241
250.22, 1.1339
250.33, 1.1290
250.43, 1.1339
250.53, 1.1388
250.63, 1.1388
250.73, 1.1437
250.83, 1.1388
250.93, 1.1388
251.03, 1.1290
251.13, 1.1290
251.24, 1.1241
251.34, 1.1241
251.44, 1.1193
251.54, 1.1193
251.64, 1.1193
251.74, 1.1241
251.85, 1.1290
251.95, 1.1339
252.05, 1.1339
252.15, 1.1437
252.25, 1.1388
252.36, 1.1388
252.45, 1.1339
252.55, 1.1290
252.66, 1.1241
252.76, 1.1193
252.86, 1.1241
252.96, 1.1193
253.06, 1.1241
253.16, 1.1193
253.26, 1.1241
253.37, 1.1241
253.46, 1.1339
253.57, 1.1388
253.67, 1.1486
253.77, 1.1388
253.87, 1.1339
253.97, 1.1290
254.08, 1.1193
254.17, 1.1144
254.28, 1.1144
254.38, 1.1144
254.48, 1.1144
254.58, 1.1193
254.68, 1.1193
254.78, 1.1241
254.89, 1.1241
254.99, 1.1290
255.09, 1.1339
255.19, 1.1388
255.29, 1.1339
255.39, 1.1290
255.50, 1.1241
255.59, 1.1193
255.70, 1.1144
255.80, 1.1144
255.90, 1.1144
256.00, 1.1144
256.10, 1.1193
256.20, 1.1193
256.30, 1.1193
256.41, 1.1241
256.50, 1.1290
256.61, 1.1339
256.71, 1.1339
256.81, 1.1339
256.92, 1.1290
257.02, 1.1241
257.12, 1.1193
257.22, 1.1193
257.32, 1.1144
257.42, 1.1095
257.52, 1.1095
257.62, 1.1095
257.72, 1.1095
257.82, 1.1144
257.93, 1.1241
258.03, 1.1241
258.13, 1.1339
258.23, 1.1290
258.34, 1.1290
258.44, 1.1241
258.53, 1.1241
258.63, 1.1144
258.74, 1.1144
258.84, 1.1095
258.94, 1.1095
259.04, 1.1095
259.14, 1.1095
259.24, 1.1144
259.35, 1.1193
259.45, 1.1241
259.55, 1.1290
259.65, 1.1339
259.75, 1.1290
259.86, 1.1339
259.95, 1.1290
260.05, 1.1241
260.16, 1.1193
260.26, 1.1144
260.36, 1.1144
260.46, 1.1095
260.56, 1.1144
260.67, 1.1290
260.77, 1.1144
260.87, 1.1144
260.97, 1.1193
261.07, 1.1241
261.17, 1.1193
261.27, 1.1290
261.37, 1.1290
261.48, 1.1241
261.58, 1.1193
261.68, 1.1144
261.78, 1.1144
261.88, 1.1095
262.00, 1.1095
