Sensor Name: ttx_102box
Initial Resistance: 90 ohms
Start Time: 2024-11-04 23:34:14
Time (s), Voltage (V)
1.48, 0.8113
1.58, 0.8016
1.68, 0.7967
1.78, 0.7918
1.88, 0.7918
1.98, 0.7918
2.09, 0.7918
2.18, 0.7967
2.29, 0.7967
2.39, 0.8016
2.49, 0.8065
2.60, 0.8113
2.70, 0.8162
2.79, 0.8162
2.90, 0.8113
3.00, 0.8016
3.10, 0.8016
3.20, 0.7967
3.30, 0.7918
3.40, 0.7918
3.50, 0.7918
3.60, 0.7967
3.70, 0.7967
3.81, 0.8016
3.91, 0.8016
4.01, 0.8113
4.11, 0.8113
4.21, 0.8113
4.31, 0.8162
4.42, 0.8065
4.51, 0.8016
4.61, 0.8016
4.72, 0.7918
4.82, 0.7918
4.93, 0.7918
5.03, 0.7918
5.13, 0.7967
5.22, 0.8016
5.33, 0.8016
5.42, 0.8113
5.53, 0.8113
5.63, 0.8113
5.73, 0.8113
5.83, 0.8113
5.93, 0.8065
6.04, 0.7967
6.14, 0.7967
6.24, 0.7918
6.34, 0.7967
6.44, 0.7918
6.54, 0.7967
6.64, 0.8016
6.75, 0.8016
6.85, 0.8065
6.95, 0.8162
7.05, 0.8260
7.15, 0.8211
7.26, 0.8162
7.36, 0.8113
7.45, 0.8065
7.55, 0.7967
7.66, 0.7967
7.77, 0.7967
7.86, 0.7967
7.96, 0.7967
8.06, 0.7967
8.16, 0.8016
8.26, 0.8065
8.37, 0.8162
8.47, 0.8162
8.57, 0.8211
8.67, 0.8211
8.77, 0.8113
8.87, 0.8016
8.97, 0.7918
9.07, 0.8016
9.18, 0.8456
9.28, 0.9042
9.38, 0.9531
9.49, 0.9873
9.58, 1.0264
9.68, 1.0411
9.78, 1.0557
9.89, 1.0655
9.99, 1.0704
10.09, 1.0704
10.19, 1.0704
10.29, 1.0606
10.39, 1.0606
10.49, 1.0508
10.60, 1.0557
10.70, 1.0557
10.80, 1.0557
10.90, 1.0508
11.00, 1.0557
11.11, 1.0557
11.21, 1.0606
11.31, 1.0704
11.41, 1.0753
11.51, 1.0753
11.61, 1.0704
11.71, 1.0655
11.81, 1.0655
11.91, 1.0606
12.02, 1.0557
12.11, 1.0557
12.22, 1.0508
12.32, 1.0508
12.42, 1.0557
12.52, 1.0606
12.62, 1.0606
12.72, 1.0704
12.83, 1.0704
12.93, 1.0704
13.03, 1.0704
13.13, 1.0704
13.23, 1.0606
13.33, 1.0557
13.43, 1.0557
13.53, 1.0508
13.64, 1.0508
13.74, 1.0557
13.84, 1.0557
13.94, 1.0557
14.04, 1.0606
14.14, 1.0655
14.24, 1.0704
14.35, 1.0704
14.45, 1.0655
14.55, 1.0606
14.65, 1.0606
14.75, 1.0557
14.85, 1.0508
14.96, 1.0508
15.05, 1.0459
15.16, 1.0459
15.26, 1.0459
15.36, 1.0508
15.46, 1.0508
15.56, 1.0557
15.66, 1.0606
15.77, 1.0655
15.87, 1.0655
15.96, 1.0655
16.07, 1.0557
16.17, 1.0606
16.27, 1.0508
16.37, 1.0459
16.47, 1.0459
16.58, 1.0459
16.68, 1.0459
16.78, 1.0508
16.88, 1.0459
16.98, 1.0508
17.08, 1.0557
17.19, 1.0606
17.28, 1.0655
17.39, 1.0606
17.49, 1.0606
17.59, 1.0606
17.69, 1.0508
17.79, 1.0459
17.89, 1.0411
18.00, 1.0411
18.10, 1.0362
18.19, 1.0459
18.30, 1.0411
18.40, 1.0459
18.50, 1.0508
18.60, 1.0557
18.70, 1.0557
18.80, 1.0606
18.91, 1.0606
19.01, 1.0508
19.11, 1.0459
19.21, 1.0411
19.31, 1.0411
19.41, 1.0362
19.51, 1.0411
19.61, 1.0362
19.71, 1.0362
19.82, 1.0459
19.92, 1.0459
20.02, 1.0508
20.12, 1.0557
20.23, 1.0606
20.33, 1.0557
20.42, 1.0557
20.53, 1.0508
20.63, 1.0411
20.73, 1.0411
20.83, 1.0362
20.93, 1.0362
21.03, 1.0362
21.13, 1.0459
21.24, 1.0411
21.34, 1.0411
21.44, 1.0459
21.54, 1.0557
21.64, 1.0606
21.74, 1.0655
21.85, 1.0655
21.95, 1.0557
22.05, 1.0459
22.15, 1.0411
22.25, 1.0362
22.35, 1.0313
22.46, 1.0411
22.56, 1.0362
22.65, 1.0362
22.76, 1.0411
22.86, 1.0411
22.96, 1.0411
23.07, 1.0459
23.16, 1.0508
23.26, 1.0557
23.37, 1.0508
23.47, 1.0459
23.57, 1.0362
23.67, 1.0362
23.77, 1.0313
23.87, 1.0313
23.97, 1.0313
24.08, 1.0313
24.17, 1.0362
24.27, 1.0362
24.38, 1.0411
24.48, 1.0459
24.58, 1.0606
24.68, 1.0557
24.79, 1.0508
24.89, 1.0459
24.99, 1.0362
25.09, 1.0313
25.19, 1.0313
25.29, 1.0313
25.39, 1.0313
25.50, 1.0313
25.59, 1.0362
25.70, 1.0362
25.80, 1.0362
25.90, 1.0411
26.00, 1.0459
26.10, 1.0508
26.21, 1.0557
26.31, 1.0508
26.41, 1.0411
26.51, 1.0362
26.61, 1.0313
26.71, 1.0264
26.81, 1.0313
26.91, 1.0264
27.02, 1.0313
27.11, 1.0313
27.21, 1.0313
27.32, 1.0362
27.42, 1.0411
27.52, 1.0459
27.62, 1.0459
27.72, 1.0508
27.83, 1.0411
27.92, 1.0411
28.03, 1.0362
28.13, 1.0362
28.23, 1.0313
28.33, 1.0264
28.43, 1.0264
28.54, 1.0264
28.63, 1.0313
28.74, 1.0313
28.84, 1.0362
28.94, 1.0459
29.04, 1.0459
29.14, 1.0459
29.24, 1.0411
29.35, 1.0411
29.45, 1.0362
29.55, 1.0264
29.65, 1.0264
29.75, 1.0264
29.85, 1.0215
29.95, 1.0264
30.05, 1.0264
30.15, 1.0264
30.26, 1.0362
30.36, 1.0362
30.46, 1.0411
30.57, 1.0459
30.67, 1.0459
30.76, 1.0411
30.87, 1.0362
30.97, 1.0313
31.07, 1.0264
31.17, 1.0264
31.27, 1.0264
31.37, 1.0215
31.47, 1.0313
31.57, 1.0411
31.67, 1.0313
31.78, 1.0313
31.88, 1.0313
31.98, 1.0411
32.08, 1.0362
32.18, 1.0411
32.29, 1.0411
32.38, 1.0362
32.49, 1.0313
32.59, 1.0215
32.69, 1.0264
32.80, 1.0166
32.89, 1.0215
32.99, 1.0264
33.10, 1.0215
33.20, 1.0313
33.30, 1.0264
33.40, 1.0362
33.50, 1.0362
33.60, 1.0362
33.70, 1.0508
33.80, 1.0459
33.91, 1.0411
34.01, 1.0313
34.11, 1.0264
34.21, 1.0215
34.31, 1.0215
34.41, 1.0166
34.52, 1.0215
34.61, 1.0215
34.71, 1.0313
34.82, 1.0313
34.92, 1.0362
35.02, 1.0459
35.12, 0.8700
35.23, 0.9384
35.33, 0.9775
35.42, 0.9922
35.53, 1.0020
35.63, 1.0020
35.73, 1.0068
35.83, 1.0166
35.93, 1.0166
36.03, 1.0215
36.14, 1.0215
36.24, 1.0215
36.33, 1.0313
36.44, 1.0264
36.54, 1.0264
36.64, 1.0313
36.74, 1.0313
36.84, 1.0313
36.95, 1.0264
37.05, 1.0264
37.15, 1.0215
37.25, 1.0215
37.35, 1.0215
37.45, 1.0264
37.55, 1.0215
37.65, 1.0215
37.76, 1.0264
37.86, 1.0264
37.96, 1.0264
38.06, 1.0313
38.16, 1.0313
38.26, 1.0313
38.36, 1.0313
38.47, 1.0264
38.57, 1.0264
38.67, 1.0411
38.77, 1.0264
38.87, 1.0264
38.97, 1.0215
39.08, 1.0264
39.18, 1.0215
39.27, 1.0215
39.38, 1.0264
39.48, 1.0313
39.58, 1.0362
39.68, 1.0508
39.78, 1.0508
39.88, 1.0362
39.99, 1.0264
40.09, 1.0215
40.19, 1.0166
40.29, 1.0166
40.39, 1.0117
40.49, 1.0166
40.59, 1.0068
40.69, 1.0166
40.79, 1.0264
40.90, 1.0264
41.00, 1.0362
41.10, 1.0362
41.20, 1.0362
41.30, 1.0411
41.41, 1.0362
41.50, 1.0264
41.61, 1.0215
41.71, 1.0166
41.81, 1.0117
41.91, 1.0117
42.01, 1.0166
42.11, 1.0215
42.21, 1.0264
42.32, 1.0215
42.42, 1.0264
42.52, 1.0313
42.62, 1.0362
42.72, 1.0362
42.82, 1.0362
42.92, 1.0313
43.02, 1.0264
43.13, 1.0215
43.23, 1.0166
43.33, 1.0117
43.43, 1.0166
43.54, 1.0117
43.63, 1.0117
43.74, 1.0215
43.84, 1.0215
43.94, 1.0264
44.04, 1.0313
44.14, 1.0313
44.25, 1.0362
44.34, 1.0313
44.45, 1.0264
44.55, 1.0264
44.68, 1.0166
44.75, 1.0166
44.85, 1.0117
44.95, 1.0117
45.05, 1.0117
45.15, 1.0166
45.25, 1.0215
45.36, 1.0215
45.46, 1.0264
45.56, 1.0313
45.66, 1.0411
45.76, 1.0362
45.86, 1.0313
45.97, 1.0264
46.07, 1.0215
46.17, 1.0166
46.27, 1.0117
46.37, 1.0117
46.48, 1.0117
46.57, 1.0166
46.67, 1.0166
46.78, 1.0215
46.88, 1.0215
46.98, 1.0264
47.08, 1.0313
47.19, 1.0411
47.29, 1.0411
47.39, 1.0362
47.49, 1.0313
47.59, 1.0264
47.69, 1.0166
47.79, 1.0166
47.89, 1.0117
47.99, 1.0117
48.09, 1.0166
48.20, 1.0166
48.30, 1.0215
48.40, 1.0264
48.50, 1.0313
48.60, 1.0362
48.70, 1.0411
48.81, 1.0411
48.91, 1.0362
49.01, 1.0313
49.11, 1.0362
49.21, 1.0215
49.31, 1.0166
49.42, 0.4399
49.51, 0.7087
49.62, 0.8309
49.72, 0.9091
49.82, 0.9531
49.92, 0.9775
50.02, 1.0020
50.12, 1.0117
50.22, 1.0166
50.32, 1.0215
50.43, 1.0264
50.52, 1.0215
50.63, 1.0215
50.73, 1.0215
50.83, 1.0166
50.93, 1.0166
51.03, 1.0215
51.14, 1.0117
51.23, 1.0166
51.34, 1.0215
51.44, 1.0215
51.54, 1.0215
51.64, 1.0313
51.74, 1.0313
51.84, 1.0313
51.95, 1.0313
52.05, 1.0264
52.15, 1.0215
52.25, 1.0264
52.35, 1.0215
52.45, 1.0264
52.55, 1.0215
52.66, 1.0313
52.75, 1.0313
52.86, 1.0264
52.96, 1.0313
53.06, 1.0264
53.16, 1.0264
53.26, 1.0313
53.37, 1.0313
53.47, 1.0362
53.56, 1.0313
53.67, 1.7155
53.77, 1.9501
53.87, 1.4418
53.97, 1.1535
54.07, 1.0606
54.18, 1.0411
54.28, 1.0313
54.38, 1.0313
54.48, 1.0313
54.58, 1.0313
54.68, 1.0411
54.78, 1.0411
54.89, 1.0411
54.99, 1.0411
55.08, 1.0313
55.19, 1.0264
55.29, 1.0215
55.39, 1.0166
55.49, 1.0166
55.60, 1.0166
55.70, 1.0215
55.80, 1.0166
55.90, 1.0264
56.00, 1.0264
56.10, 1.2414
56.20, 1.1632
56.30, 1.1095
56.40, 1.0802
56.51, 1.0606
56.61, 1.0411
56.71, 1.0313
56.81, 1.0264
56.91, 1.0264
57.01, 1.0166
57.11, 1.0166
57.22, 1.0117
57.31, 1.0166
57.42, 1.0264
57.52, 1.0264
57.62, 1.0362
57.72, 1.0411
57.82, 1.0411
57.93, 1.0411
58.03, 1.0362
58.12, 1.0264
58.23, 1.0215
58.33, 1.0215
58.43, 1.0166
58.53, 1.0215
58.63, 1.0166
58.74, 1.0166
58.84, 1.0215
58.94, 1.0215
59.04, 1.0362
59.14, 1.0362
59.25, 1.0411
59.34, 1.0411
59.45, 1.0411
59.55, 1.0362
59.65, 1.0362
59.75, 1.0215
59.85, 1.0215
59.95, 1.0166
60.05, 1.0166
60.16, 1.0166
60.25, 1.0166
60.36, 1.0166
60.46, 1.0215
60.56, 1.0313
60.66, 1.0313
60.76, 1.0362
60.86, 1.0411
60.97, 1.0411
61.07, 1.0362
61.17, 1.0264
61.27, 1.0264
61.37, 1.0166
61.47, 1.0117
61.58, 1.0166
61.67, 1.0166
61.77, 1.0166
61.88, 1.0166
61.98, 1.0215
62.08, 1.0264
62.18, 1.0362
62.28, 1.0411
62.38, 1.0362
62.48, 1.0411
62.59, 1.0362
62.68, 1.0313
62.79, 1.0215
62.89, 1.0166
62.99, 1.0117
63.09, 1.0264
63.20, 1.0117
63.29, 1.0117
63.40, 1.0215
63.50, 1.0264
63.62, 1.0264
63.71, 1.0313
63.80, 1.0411
63.90, 1.0411
64.00, 1.0411
64.11, 1.0313
64.21, 1.0264
64.31, 1.0215
64.41, 1.0166
64.51, 1.0117
64.61, 1.0117
64.72, 1.0117
64.81, 1.0166
64.91, 1.0166
65.02, 1.0264
65.12, 1.0166
65.22, 1.0313
65.32, 1.0411
65.42, 1.0411
65.53, 1.0362
65.63, 1.0362
65.73, 1.0264
65.83, 1.0215
65.94, 1.0166
66.04, 1.0166
66.13, 1.0166
66.24, 1.0117
66.34, 1.0166
66.44, 1.0166
66.54, 1.0215
66.64, 1.0362
66.75, 1.0313
66.84, 1.0362
66.95, 1.0411
67.05, 1.0411
67.15, 1.0264
67.25, 1.0264
67.35, 1.0215
67.45, 1.0215
67.55, 1.0166
67.66, 1.0117
67.76, 1.0166
67.86, 1.0166
67.96, 1.0215
68.06, 1.0264
68.16, 1.0264
68.26, 1.0313
68.36, 1.0313
68.47, 1.0362
68.57, 1.0411
68.66, 1.0313
68.77, 1.0313
68.87, 1.0215
68.98, 1.0166
69.07, 1.0215
69.17, 1.0166
69.27, 1.0166
69.37, 1.0166
69.48, 1.0215
69.58, 1.0215
69.68, 1.0313
69.78, 1.0362
69.88, 1.0362
69.99, 1.0411
70.09, 1.0313
70.18, 1.0362
70.29, 1.0264
70.39, 1.0215
70.49, 1.0215
70.60, 1.0166
70.70, 1.0117
70.80, 1.0117
70.90, 1.0166
71.00, 1.0215
71.10, 1.0264
71.20, 1.0313
71.30, 1.0362
71.40, 1.0411
71.50, 1.0411
71.60, 1.0362
71.71, 1.0313
71.81, 1.0264
71.91, 1.0166
72.02, 1.0166
72.12, 1.0166
72.21, 1.0117
72.32, 1.0166
72.42, 1.0215
72.52, 1.0264
72.62, 1.0264
72.72, 1.0313
72.82, 1.0362
72.93, 1.0362
73.02, 1.0362
73.13, 1.0362
73.23, 1.0313
73.33, 1.0215
73.43, 1.0215
73.53, 1.0166
73.63, 1.0313
73.74, 1.0215
73.83, 1.0166
73.94, 1.0215
74.04, 1.0215
74.14, 1.0166
74.24, 1.0264
74.34, 1.0362
74.44, 1.0362
74.55, 1.0313
74.64, 1.0313
74.75, 1.0264
74.85, 1.0215
74.95, 1.0166
75.05, 1.0166
75.15, 1.0166
75.26, 1.0166
75.36, 1.0166
75.46, 1.0264
75.56, 1.0264
75.66, 1.0215
75.76, 1.0362
75.86, 1.0411
75.96, 1.0411
76.07, 1.0362
76.17, 1.0362
76.27, 1.0264
76.37, 1.0215
76.47, 1.0166
76.58, 1.0166
76.68, 1.0166
76.77, 1.0215
76.88, 1.0215
76.98, 1.0215
77.08, 1.0264
77.18, 1.0411
77.28, 1.0362
77.39, 1.0411
77.49, 1.0362
77.59, 1.0362
77.68, 1.0215
77.79, 1.0215
77.89, 1.0166
77.99, 1.0215
78.09, 1.0215
78.19, 1.0117
78.30, 1.0166
78.40, 1.0166
78.50, 1.0264
78.60, 1.0264
78.71, 1.0313
78.81, 1.0362
78.90, 1.0362
79.01, 1.0362
79.10, 1.0313
79.21, 1.0264
79.31, 1.0215
79.41, 1.0215
79.51, 1.0166
79.61, 1.0166
79.71, 1.0215
79.82, 1.0166
79.91, 1.0215
80.02, 1.0215
80.12, 1.0264
80.23, 1.0362
80.32, 1.0411
80.42, 1.0362
80.53, 1.0411
80.63, 1.0362
80.73, 1.0313
80.83, 1.0215
80.93, 1.0166
81.03, 1.0166
81.14, 1.0166
81.23, 1.0215
81.33, 1.0166
81.44, 1.0215
81.54, 1.0264
81.64, 1.0264
81.74, 1.0362
81.84, 1.0411
81.94, 1.0362
82.04, 1.0362
82.14, 1.0313
82.25, 1.0313
82.35, 1.0215
82.45, 1.0215
82.55, 1.0166
82.65, 1.0117
82.75, 1.0215
82.86, 1.0215
82.95, 1.0264
83.06, 1.0313
83.16, 1.0313
83.26, 1.0411
83.36, 1.0411
83.47, 1.0411
83.57, 1.0362
83.67, 1.0362
83.77, 0.0587
83.87, 0.1173
83.97, 0.1662
84.07, 0.2102
84.17, 0.2590
84.28, 0.3030
84.38, 0.3421
84.48, 0.3715
84.58, 0.4008
84.68, 0.4350
84.78, 0.4643
84.88, 0.4936
84.99, 0.5181
85.09, 0.5425
85.18, 0.5670
85.29, 0.5865
85.39, 0.6109
85.49, 0.6305
85.59, 0.6500
85.70, 0.6696
85.79, 0.6891
85.90, 0.7038
85.99, 0.7234
86.10, 0.7331
86.20, 0.7429
86.30, 0.7527
86.41, 0.7674
86.50, 0.7820
86.60, 0.7918
86.70, 0.8016
86.81, 0.8113
86.91, 0.8260
87.01, 0.8309
87.11, 0.8456
87.21, 0.8504
87.32, 0.8602
87.42, 0.8651
87.51, 0.8700
87.62, 0.8798
87.72, 0.8993
87.82, 0.9042
87.92, 0.9091
88.02, 0.9189
88.12, 0.9189
88.22, 0.9189
88.33, 0.9238
88.43, 0.9286
88.53, 0.9335
88.63, 0.9384
88.73, 0.9433
88.84, 0.9482
88.94, 0.9433
89.04, 0.9531
89.14, 0.9580
89.24, 0.9580
89.34, 0.9580
89.44, 0.9629
89.54, 0.9629
89.64, 0.9726
89.75, 0.9677
89.85, 0.9677
89.95, 0.9726
90.05, 0.9726
90.15, 0.9726
90.25, 0.9775
90.35, 0.9873
90.46, 0.9824
90.55, 0.9873
90.66, 0.9873
90.76, 0.9873
90.86, 0.9922
90.96, 0.9922
91.06, 0.9922
91.16, 1.0068
91.27, 1.0117
91.37, 1.0117
91.47, 1.0117
91.57, 1.0117
91.67, 1.0068
91.78, 1.0068
91.87, 1.0068
91.98, 1.0068
92.08, 1.0068
92.18, 1.0068
92.28, 1.0068
92.38, 1.0068
92.48, 1.0117
92.58, 1.0117
92.68, 1.0117
92.79, 1.0117
92.89, 1.0117
92.99, 1.0117
93.09, 1.0117
93.19, 1.0068
93.30, 1.0117
93.40, 1.0117
93.50, 1.0117
93.60, 1.0117
93.70, 1.0117
93.80, 1.0117
93.90, 1.0166
94.01, 1.0166
94.10, 1.0166
94.20, 1.0166
94.31, 1.0166
94.41, 1.0166
94.51, 1.0215
94.61, 1.0166
94.71, 1.0362
94.81, 1.0362
94.92, 1.0313
95.01, 1.0362
95.12, 1.0362
95.22, 1.0264
95.32, 1.0264
95.42, 1.0264
95.52, 1.0264
95.62, 1.0215
95.72, 1.0215
95.83, 1.0215
95.93, 1.0264
96.03, 1.0362
96.13, 1.0411
96.23, 1.0508
96.34, 1.0557
96.43, 1.0704
96.54, 1.0802
96.64, 1.0899
96.74, 1.0948
96.84, 1.1046
96.94, 1.1144
97.04, 1.1290
97.14, 1.1339
97.25, 1.1388
97.35, 1.1486
97.45, 1.1535
97.55, 1.1632
97.65, 1.1681
97.75, 1.1730
97.86, 1.1779
97.95, 1.1877
98.06, 1.1877
98.16, 1.1975
98.26, 1.2170
98.36, 1.2219
98.46, 1.2219
98.57, 1.2268
98.67, 1.2170
98.77, 1.2268
98.87, 1.2268
98.97, 1.2268
99.07, 1.2317
99.17, 1.2317
99.28, 1.2317
99.37, 1.2366
99.48, 1.2414
99.57, 1.2414
99.68, 1.2414
99.78, 1.2414
99.89, 1.2463
99.99, 1.2463
100.08, 1.2463
100.18, 1.2414
100.28, 1.2414
100.39, 1.2512
100.49, 1.2463
100.59, 1.2463
100.69, 1.2463
100.79, 1.2463
100.89, 1.2512
101.00, 1.2512
101.10, 1.2512
101.20, 1.2561
101.30, 1.2561
101.40, 1.2561
101.50, 1.2610
101.61, 1.2561
101.71, 1.2757
101.80, 1.2708
101.91, 1.2805
102.01, 1.2757
102.11, 1.2708
102.21, 1.2610
102.31, 1.2610
102.42, 1.2659
102.52, 1.2659
102.62, 1.2659
102.72, 1.2659
102.82, 1.2659
102.92, 1.2659
103.02, 1.2610
103.12, 1.2659
103.22, 1.2659
103.33, 1.2659
103.43, 1.2659
103.53, 1.2659
103.63, 1.2659
103.73, 1.2561
103.83, 1.2561
103.93, 1.2610
104.04, 1.2561
104.13, 1.2561
104.24, 1.2610
104.34, 1.2561
104.44, 1.2561
104.54, 1.2610
104.64, 1.2610
104.75, 1.2561
104.85, 1.2610
104.95, 1.2561
105.05, 1.2610
105.15, 1.2610
105.25, 1.2757
105.36, 1.2757
105.46, 1.2757
105.55, 1.2757
105.66, 1.2757
105.76, 1.2708
105.86, 1.2610
105.96, 1.2659
106.06, 1.2659
106.16, 1.2659
106.26, 1.2610
106.37, 1.2610
106.47, 1.2610
106.57, 1.2659
106.67, 1.2610
106.77, 1.2610
106.87, 1.2610
106.98, 1.2610
107.08, 1.2610
107.18, 1.2561
107.28, 1.2512
107.38, 1.2512
107.48, 1.2512
107.58, 1.2512
107.69, 1.2561
107.78, 1.2512
107.89, 1.2512
107.99, 1.2561
108.09, 1.2561
108.19, 1.2561
108.29, 1.2512
108.40, 1.2512
108.50, 1.2561
108.59, 1.2561
108.70, 1.2757
108.80, 1.2708
108.90, 1.2757
109.00, 1.2708
109.11, 1.2708
109.20, 1.2610
109.30, 1.2561
109.41, 1.2610
109.51, 1.2610
109.61, 1.2561
109.71, 1.2561
109.82, 1.2561
109.92, 1.2561
110.01, 1.2561
110.13, 1.2610
110.22, 1.2561
110.32, 1.2610
110.42, 1.2561
110.52, 1.2561
110.62, 1.2561
110.72, 1.2463
110.83, 1.2463
110.93, 1.2463
111.03, 1.2463
111.14, 1.2463
111.23, 1.2512
111.33, 1.2463
111.43, 1.2512
111.54, 1.2463
111.64, 1.2512
111.75, 1.2512
111.84, 1.2512
111.94, 1.2512
112.05, 1.2512
112.24, 1.2512
112.26, 1.2708
