Sensor Name: ttx_224
Initial Resistance: 89 ohms
Time (s), Voltage (V)
1.35, 1.70
1.47, 1.70
1.59, 1.70
1.70, 1.71
1.82, 1.71
1.93, 1.70
2.05, 1.71
2.17, 1.70
2.28, 1.71
2.40, 1.70
2.52, 1.70
2.64, 1.69
2.75, 1.69
2.88, 1.70
3.00, 1.70
3.12, 1.70
3.23, 1.70
3.35, 1.71
3.46, 1.71
3.58, 1.71
3.70, 1.71
3.81, 1.70
3.93, 1.71
4.05, 1.70
4.16, 1.70
4.28, 1.70
4.40, 1.70
4.51, 1.70
4.63, 1.70
4.75, 1.70
4.86, 1.70
4.98, 1.70
5.10, 1.70
5.21, 1.70
5.33, 1.71
5.45, 1.71
5.56, 1.70
5.68, 1.71
5.80, 1.69
5.91, 1.70
6.03, 1.69
6.15, 1.70
6.26, 1.69
6.38, 1.70
6.49, 1.69
6.61, 1.70
6.73, 1.70
6.84, 1.70
6.96, 1.70
7.08, 1.70
7.20, 1.70
7.31, 1.71
7.43, 1.70
7.54, 1.70
7.66, 1.69
7.78, 1.69
7.89, 1.70
8.01, 1.69
8.12, 1.69
8.24, 1.70
8.36, 1.70
8.48, 1.68
8.59, 1.70
8.71, 1.70
8.83, 1.69
8.94, 1.70
9.06, 1.70
9.18, 1.70
9.29, 1.70
9.41, 1.69
9.52, 1.69
9.64, 1.69
9.76, 1.69
9.87, 1.69
9.99, 1.69
10.11, 1.69
10.22, 1.69
10.34, 1.69
10.46, 1.70
10.57, 1.70
10.69, 1.70
10.81, 1.70
10.92, 1.70
11.04, 1.70
11.16, 1.69
11.27, 1.69
11.39, 1.69
11.51, 1.69
11.62, 1.68
11.74, 1.69
11.86, 1.69
11.97, 1.68
12.09, 1.69
12.21, 1.70
12.32, 1.69
12.44, 1.70
12.56, 1.70
12.67, 1.69
12.79, 1.70
12.90, 1.69
13.02, 1.69
13.14, 1.68
13.25, 1.69
13.37, 1.68
13.49, 1.69
13.60, 1.69
13.72, 1.78
13.84, 1.94
13.95, 2.09
14.07, 2.21
14.19, 2.29
14.30, 2.34
14.42, 2.38
14.54, 2.39
14.65, 2.41
14.77, 2.41
14.89, 2.42
15.00, 2.42
15.12, 2.42
15.23, 2.42
15.35, 2.43
15.47, 2.42
15.58, 2.42
15.70, 2.43
15.82, 2.43
15.94, 2.42
16.05, 2.43
16.17, 2.43
16.29, 2.43
16.40, 2.42
16.53, 2.41
16.65, 2.43
16.77, 2.45
16.88, 2.48
17.00, 2.49
17.12, 2.51
17.23, 2.53
17.35, 2.57
17.47, 2.61
17.58, 2.62
17.70, 2.64
17.82, 2.65
17.93, 2.67
18.05, 2.66
18.17, 2.66
18.29, 2.67
18.40, 2.66
18.52, 2.66
18.63, 2.66
18.75, 2.66
18.87, 2.67
18.98, 2.67
19.10, 2.66
19.22, 2.67
19.33, 2.68
19.45, 2.68
19.57, 2.67
19.68, 2.67
19.80, 2.67
19.91, 2.68
20.03, 2.67
20.15, 2.66
20.27, 2.67
20.38, 2.67
20.50, 2.67
20.62, 2.67
20.73, 2.68
20.85, 2.67
20.96, 2.68
21.08, 2.68
21.20, 2.68
21.31, 2.68
21.43, 2.68
21.55, 2.68
21.66, 2.68
21.78, 2.68
21.90, 2.68
22.01, 2.67
22.13, 2.67
22.25, 2.68
22.36, 2.68
22.48, 2.68
22.60, 2.69
22.71, 2.68
22.83, 2.68
22.94, 2.70
23.06, 2.69
23.18, 2.69
23.29, 2.69
23.41, 2.69
23.53, 2.68
23.65, 2.69
23.76, 2.68
23.88, 2.69
23.99, 2.69
24.11, 2.70
24.23, 2.69
24.34, 2.70
24.46, 2.69
24.58, 2.70
24.69, 2.70
24.81, 2.70
24.93, 2.70
25.04, 2.70
25.16, 2.70
25.28, 2.70
25.39, 2.70
25.51, 2.69
25.63, 2.69
25.74, 2.70
25.86, 2.69
25.97, 2.69
26.09, 2.71
26.21, 2.70
26.33, 2.70
26.44, 2.71
26.56, 2.71
26.68, 2.70
26.79, 2.71
26.91, 2.70
27.03, 2.70
27.14, 2.70
27.25, 2.70
27.38, 2.70
27.49, 2.70
27.61, 2.70
27.73, 2.71
27.84, 2.70
27.97, 2.71
28.11, 2.70
28.23, 2.71
28.34, 2.71
28.46, 2.71
28.58, 2.71
28.69, 2.71
28.81, 2.71
28.92, 2.70
29.04, 2.71
29.16, 2.71
29.27, 2.71
29.39, 2.71
29.51, 2.70
29.62, 2.71
29.74, 2.72
29.85, 2.71
29.97, 2.72
30.09, 2.72
30.20, 2.72
30.32, 2.72
30.44, 2.72
30.55, 2.71
30.67, 2.71
30.79, 2.72
30.91, 2.70
31.02, 2.72
31.14, 2.71
31.25, 2.71
31.37, 2.71
31.49, 2.72
31.60, 2.72
31.72, 2.72
31.84, 2.72
31.95, 2.72
32.07, 2.72
32.19, 2.72
32.30, 2.72
32.42, 2.72
32.54, 2.72
32.65, 2.72
32.77, 2.71
32.89, 2.72
33.00, 2.71
33.12, 2.72
33.24, 2.72
33.35, 2.72
33.47, 2.73
33.59, 2.73
33.70, 2.72
33.82, 2.73
33.93, 2.73
34.05, 2.73
34.17, 2.72
34.29, 2.72
34.40, 2.72
34.52, 2.72
34.63, 2.72
34.75, 2.71
34.87, 2.73
34.98, 2.72
35.10, 2.73
35.22, 2.72
35.33, 2.73
35.45, 2.73
35.57, 2.73
35.68, 2.73
35.80, 2.73
35.92, 2.72
36.03, 2.73
36.15, 2.72
36.27, 2.72
36.38, 2.72
36.50, 2.72
36.62, 2.73
36.73, 2.72
36.85, 2.72
36.97, 2.73
37.08, 2.73
37.20, 2.73
37.31, 2.73
37.43, 2.74
37.55, 2.73
37.67, 2.73
37.78, 2.73
37.90, 2.72
38.01, 2.72
38.13, 2.73
38.25, 2.71
38.36, 2.73
38.48, 2.72
38.60, 2.73
38.73, 2.73
38.85, 2.74
38.96, 2.73
39.08, 2.74
39.20, 2.73
39.31, 2.74
39.43, 2.73
39.55, 2.73
39.66, 2.73
39.78, 2.73
39.90, 2.73
40.01, 2.73
40.13, 2.72
40.25, 2.74
40.36, 2.73
40.48, 2.72
40.60, 2.73
40.71, 2.73
40.83, 2.73
40.94, 2.74
41.06, 2.74
41.18, 2.73
41.30, 2.73
41.41, 2.73
41.53, 2.72
41.65, 2.73
41.76, 2.73
41.88, 2.73
41.99, 2.74
42.11, 2.73
42.23, 2.74
42.34, 2.73
42.46, 2.74
42.58, 2.73
42.69, 2.74
42.81, 2.74
42.93, 2.73
43.04, 2.73
43.16, 2.73
43.28, 2.73
43.39, 2.73
43.51, 2.74
43.63, 2.73
43.74, 2.74
43.86, 2.73
43.98, 2.73
44.09, 2.74
44.21, 2.74
44.32, 2.73
44.44, 2.75
44.56, 2.74
44.67, 2.73
44.79, 2.74
44.91, 2.74
45.03, 2.73
45.14, 2.73
45.26, 2.73
45.37, 2.73
45.49, 2.74
45.61, 2.73
45.72, 2.74
45.84, 2.74
45.96, 2.74
46.07, 2.75
46.19, 2.74
46.31, 2.74
46.42, 2.74
46.54, 2.74
46.66, 2.74
46.77, 2.74
46.89, 2.74
47.01, 2.74
47.12, 2.74
47.24, 2.74
47.36, 2.74
47.47, 2.74
47.59, 2.74
47.70, 2.75
47.82, 2.74
47.94, 2.74
48.05, 2.75
48.17, 2.73
48.29, 2.73
48.41, 2.74
48.52, 2.74
48.64, 2.76
48.76, 2.80
48.87, 2.81
48.99, 2.79
49.10, 2.80
49.22, 2.78
49.34, 2.80
49.45, 2.82
49.57, 2.84
49.69, 2.84
49.80, 2.85
49.92, 2.85
50.04, 2.85
50.15, 2.85
50.27, 2.84
50.39, 2.85
50.50, 2.85
50.62, 2.84
50.74, 2.85
50.85, 2.86
50.97, 2.85
51.08, 2.85
51.20, 2.87
51.32, 2.86
51.43, 2.86
51.55, 2.86
51.67, 2.86
51.79, 2.86
51.90, 2.86
52.02, 2.85
52.14, 2.84
52.25, 2.84
52.37, 2.84
52.48, 2.83
52.60, 2.85
52.72, 2.87
52.84, 2.87
52.95, 2.88
53.07, 2.88
53.18, 2.89
53.30, 2.88
53.42, 2.89
53.53, 2.88
53.65, 2.88
53.77, 2.88
53.88, 2.88
54.00, 2.88
54.12, 2.88
54.23, 2.88
54.35, 2.89
54.47, 2.88
54.58, 2.88
54.70, 2.90
54.81, 2.89
54.93, 2.89
55.05, 2.90
55.17, 2.88
55.28, 2.89
55.40, 2.91
55.51, 2.90
55.63, 2.88
55.75, 2.89
55.87, 2.88
55.98, 2.87
56.10, 2.88
56.21, 2.90
56.33, 2.90
56.45, 2.93
56.56, 2.92
56.68, 2.94
56.80, 2.93
56.91, 2.94
57.03, 2.93
57.15, 2.93
57.26, 2.92
57.38, 2.92
57.49, 2.92
57.61, 2.92
57.73, 2.92
57.85, 2.92
57.96, 2.92
58.08, 2.93
58.20, 2.93
58.31, 2.93
58.43, 2.94
58.55, 2.94
58.66, 2.93
58.78, 2.93
58.90, 2.93
59.01, 2.92
59.13, 2.93
59.24, 2.93
59.38, 2.92
59.50, 2.92
59.61, 2.93
59.73, 2.93
59.84, 2.92
59.96, 2.93
60.08, 2.92
60.19, 2.94
60.31, 2.93
60.43, 2.94
60.54, 2.93
60.66, 2.93
60.78, 2.93
60.89, 2.93
61.01, 2.93
61.13, 2.93
61.24, 2.93
61.36, 2.93
61.48, 2.93
61.59, 2.93
61.71, 2.94
61.83, 2.94
61.94, 2.94
62.06, 2.94
62.18, 2.94
62.29, 2.94
62.41, 2.94
62.52, 2.93
62.64, 2.92
62.76, 2.94
62.87, 2.93
62.99, 2.92
63.11, 2.93
63.22, 2.93
63.34, 2.92
63.46, 2.94
63.58, 2.93
63.69, 2.93
63.81, 2.94
63.92, 2.93
64.04, 2.95
64.16, 2.93
64.27, 2.94
64.39, 2.93
64.51, 2.93
64.62, 2.93
64.74, 2.93
64.86, 2.93
64.97, 2.93
65.09, 2.93
65.21, 2.94
65.32, 2.93
65.44, 2.94
65.56, 2.95
65.67, 2.94
65.79, 2.94
65.91, 2.95
66.02, 2.93
66.14, 2.93
66.25, 2.93
66.37, 2.93
66.49, 2.92
66.60, 2.93
66.72, 2.94
66.84, 2.93
66.95, 2.94
67.07, 2.94
67.19, 2.93
67.30, 2.94
67.42, 2.94
67.54, 2.95
67.65, 2.94
67.77, 2.94
67.89, 2.94
68.00, 2.93
68.12, 2.93
68.24, 2.93
68.35, 2.93
68.47, 2.93
68.59, 2.93
68.70, 2.93
68.82, 2.93
68.93, 2.93
69.05, 2.93
69.17, 2.94
69.28, 2.93
69.40, 2.94
69.52, 2.94
69.63, 2.92
69.75, 2.93
69.87, 2.92
69.98, 2.92
70.10, 2.92
70.22, 2.93
70.34, 2.92
70.45, 2.92
70.57, 2.93
70.68, 2.92
70.80, 2.93
70.92, 2.93
71.03, 2.92
71.15, 2.94
71.27, 2.92
71.38, 2.93
71.50, 2.92
71.62, 2.92
71.73, 2.92
71.85, 2.92
71.97, 2.91
72.08, 2.92
72.20, 2.92
72.31, 2.92
72.43, 2.92
72.55, 2.92
72.67, 2.92
72.78, 2.93
72.90, 2.92
73.02, 2.93
73.13, 2.92
73.26, 2.91
73.38, 2.92
73.50, 2.91
73.61, 2.91
73.73, 2.91
73.85, 2.92
73.97, 2.91
74.10, 2.91
74.21, 2.92
74.33, 2.92
74.45, 2.91
74.56, 2.92
74.68, 2.91
74.80, 2.93
74.91, 2.91
75.03, 2.92
75.15, 2.91
75.26, 2.91
75.38, 2.91
75.50, 2.91
75.61, 2.90
75.73, 2.91
75.85, 2.91
75.96, 2.91
76.08, 2.91
76.20, 2.91
76.31, 2.92
76.43, 2.91
76.55, 2.92
76.66, 2.92
76.78, 2.91
76.90, 2.91
77.01, 2.91
77.13, 2.90
77.24, 2.90
77.36, 2.91
77.48, 2.90
77.59, 2.90
77.71, 2.90
77.83, 2.90
77.94, 2.90
78.06, 2.91
78.18, 2.90
78.30, 2.90
78.44, 2.90
78.56, 2.90
78.69, 2.90
78.83, 2.89
78.95, 2.89
79.06, 2.89
79.18, 2.89
79.29, 2.89
79.41, 2.89
79.53, 2.89
79.64, 2.89
79.76, 2.89
79.87, 2.89
79.99, 2.89
80.11, 2.89
80.23, 2.90
80.34, 2.89
80.46, 2.88
80.57, 2.89
80.69, 2.87
80.81, 2.87
80.93, 2.88
81.04, 2.88
81.16, 2.87
81.28, 2.88
81.41, 2.88
81.52, 2.86
81.64, 2.85
81.76, 2.83
81.87, 2.80
81.99, 2.79
82.11, 2.76
82.22, 2.75
82.34, 2.73
82.46, 2.72
82.57, 2.70
82.69, 2.69
82.81, 2.67
82.92, 2.66
83.04, 2.65
83.15, 2.63
83.27, 2.63
83.39, 2.62
83.51, 2.61
83.62, 2.61
83.74, 2.59
83.85, 2.59
83.97, 2.57
84.09, 2.56
84.20, 2.56
84.32, 2.54
84.44, 2.53
84.56, 2.54
84.67, 2.54
84.79, 2.53
84.91, 2.54
85.02, 2.54
85.14, 2.54
85.25, 2.55
85.37, 2.55
85.49, 2.54
85.60, 2.55
85.72, 2.55
85.84, 2.55
85.95, 2.54
86.07, 2.55
86.19, 2.54
86.30, 2.55
86.42, 2.54
86.54, 2.55
86.65, 2.54
86.77, 2.54
86.88, 2.55
87.00, 2.54
87.12, 2.55
87.24, 2.55
87.35, 2.56
87.47, 2.55
87.58, 2.54
87.70, 2.55
87.82, 2.54
87.93, 2.53
88.05, 2.54
88.17, 2.53
88.28, 2.53
88.40, 2.54
88.52, 2.54
88.63, 2.53
88.75, 2.53
88.87, 2.54
88.98, 2.54
89.10, 2.54
89.22, 2.54
89.33, 2.53
89.45, 2.54
89.57, 2.53
89.68, 2.53
89.80, 2.52
89.91, 2.53
90.03, 2.52
90.15, 2.52
90.26, 2.53
90.38, 2.53
90.50, 2.53
90.62, 2.53
90.73, 2.53
90.85, 2.54
90.96, 2.53
91.08, 2.53
91.20, 2.53
91.31, 2.52
91.43, 2.52
91.55, 2.53
91.66, 2.52
91.78, 2.52
91.90, 2.52
92.01, 2.52
92.13, 2.52
92.25, 2.52
92.36, 2.53
92.48, 2.52
92.60, 2.53
92.71, 2.53
92.83, 2.52
92.95, 2.52
93.06, 2.51
93.18, 2.52
93.30, 2.51
93.41, 2.52
93.53, 2.51
93.64, 2.51
93.76, 2.51
93.88, 2.51
93.99, 2.51
94.11, 2.51
94.23, 2.52
94.35, 2.51
94.46, 2.52
94.58, 2.52
94.69, 2.51
94.81, 2.52
94.93, 2.50
95.04, 2.50
95.16, 2.50
95.28, 2.50
95.39, 2.49
95.51, 2.49
95.63, 2.50
95.74, 2.49
95.86, 2.50
95.98, 2.51
96.09, 2.50
96.21, 2.51
96.33, 2.51
96.44, 2.50
96.56, 2.50
96.68, 2.49
96.79, 2.50
96.91, 2.49
97.02, 2.50
97.14, 2.49
97.26, 2.50
97.37, 2.49
97.49, 2.50
97.61, 2.49
97.72, 2.50
97.84, 2.50
97.96, 2.50
98.07, 2.50
98.19, 2.50
98.31, 2.50
98.42, 2.50
98.54, 2.49
98.66, 2.49
98.77, 2.49
98.89, 2.48
99.01, 2.49
99.12, 2.49
99.24, 2.49
99.36, 2.48
99.47, 2.49
99.59, 2.49
99.71, 2.49
99.82, 2.49
99.94, 2.49
100.06, 2.48
100.17, 2.48
100.29, 2.48
100.41, 2.48
100.52, 2.47
100.64, 2.48
100.77, 2.47
100.89, 2.47
101.00, 2.47
101.12, 2.48
101.24, 2.47
101.35, 2.48
101.47, 2.48
101.59, 2.48
101.70, 2.48
101.82, 2.48
101.94, 2.47
102.05, 2.47
102.17, 2.48
102.29, 2.47
102.40, 2.47
102.52, 2.48
102.64, 2.47
102.75, 2.46
102.87, 2.47
102.99, 2.48
103.10, 2.47
103.22, 2.47
103.34, 2.48
103.45, 2.47
103.57, 2.48
103.68, 2.48
103.80, 2.46
103.92, 2.47
104.04, 2.46
104.15, 2.47
104.27, 2.46
104.38, 2.47
104.50, 2.46
104.62, 2.46
104.73, 2.46
104.85, 2.46
104.97, 2.46
105.08, 2.46
105.20, 2.46
105.32, 2.46
105.44, 2.46
105.55, 2.46
105.67, 2.46
105.78, 2.44
105.90, 2.45
106.02, 2.45
106.14, 2.44
106.25, 2.45
106.37, 2.44
106.48, 2.43
106.60, 2.44
106.72, 2.44
106.83, 2.44
106.95, 2.43
107.07, 2.45
107.18, 2.44
107.30, 2.44
107.42, 2.44
107.53, 2.43
107.65, 2.43
107.76, 2.42
107.88, 2.43
108.00, 2.42
108.11, 2.43
108.23, 2.42
108.35, 2.43
108.46, 2.43
108.58, 2.43
108.70, 2.43
108.81, 2.43
108.93, 2.43
109.05, 2.43
109.16, 2.43
109.28, 2.43
109.40, 2.43
109.51, 2.41
109.63, 2.42
109.75, 2.42
109.86, 2.41
109.98, 2.42
110.10, 2.42
110.21, 2.41
110.33, 2.41
110.44, 2.42
110.56, 2.42
110.68, 2.41
110.80, 2.43
110.91, 2.42
111.04, 2.42
111.16, 2.41
111.28, 2.41
111.39, 2.41
111.51, 2.40
111.63, 2.41
111.75, 2.40
111.86, 2.41
111.98, 2.41
112.09, 2.41
112.21, 2.41
112.33, 2.41
112.44, 2.41
112.56, 2.41
112.68, 2.41
112.79, 2.41
112.91, 2.40
113.03, 2.40
113.14, 2.40
113.26, 2.39
113.38, 2.40
113.49, 2.40
113.61, 2.39
113.73, 2.39
113.84, 2.41
113.96, 2.39
114.08, 2.39
114.19, 2.40
114.31, 2.41
114.43, 2.40
114.54, 2.40
114.66, 2.40
114.77, 2.39
114.89, 2.40
115.01, 2.39
115.12, 2.39
115.24, 2.39
115.36, 2.39
115.47, 2.39
115.59, 2.39
115.71, 2.39
115.82, 2.39
115.94, 2.39
116.06, 2.39
116.17, 2.39
116.29, 2.39
116.41, 2.39
116.52, 2.39
116.64, 2.39
116.76, 2.39
116.87, 2.38
116.99, 2.39
117.11, 2.38
117.22, 2.38
117.34, 2.39
117.46, 2.38
117.57, 2.38
117.69, 2.38
117.81, 2.39
117.92, 2.39
118.04, 2.38
118.15, 2.39
118.27, 2.38
118.39, 2.39
118.51, 2.38
118.62, 2.38
118.74, 2.37
118.86, 2.37
118.97, 2.37
119.09, 2.37
119.20, 2.37
119.32, 2.37
119.44, 2.37
119.55, 2.37
119.67, 2.37
119.79, 2.38
119.90, 2.38
120.02, 2.38
120.14, 2.38
120.25, 2.37
120.37, 2.37
120.49, 2.37
120.60, 2.36
120.72, 2.37
120.84, 2.37
120.95, 2.36
121.07, 2.36
121.19, 2.37
121.30, 2.36
121.42, 2.36
121.53, 2.37
121.65, 2.37
121.77, 2.36
121.88, 2.37
122.00, 2.36
122.13, 2.36
122.25, 2.35
122.37, 2.35
122.48, 2.35
122.60, 2.35
122.72, 2.35
122.83, 2.35
122.95, 2.35
123.07, 2.35
123.18, 2.35
123.30, 2.36
123.42, 2.35
123.53, 2.36
123.65, 2.35
123.77, 2.35
123.88, 2.36
124.00, 2.35
124.12, 2.34
124.23, 2.35
124.35, 2.34
124.47, 2.33
124.58, 2.34
124.70, 2.34
124.82, 2.34
124.93, 2.34
125.05, 2.34
125.17, 2.34
125.28, 2.34
125.40, 2.35
125.51, 2.34
125.63, 2.35
125.75, 2.34
125.86, 2.34
125.98, 2.34
126.10, 2.33
126.21, 2.33
126.33, 2.33
126.45, 2.33
126.56, 2.33
126.68, 2.33
126.80, 2.33
126.91, 2.34
127.03, 2.34
127.15, 2.34
127.26, 2.34
127.38, 2.33
127.50, 2.34
127.61, 2.34
127.73, 2.33
127.85, 2.33
127.96, 2.33
128.08, 2.32
128.19, 2.32
128.31, 2.33
128.43, 2.33
128.55, 2.32
128.66, 2.33
128.78, 2.33
128.90, 2.33
129.01, 2.34
129.13, 2.33
129.25, 2.33
129.36, 2.34
129.48, 2.32
129.59, 2.33
129.71, 2.32
129.83, 2.33
129.94, 2.32
130.06, 2.32
130.18, 2.32
130.29, 2.32
130.41, 2.32
130.53, 2.32
130.64, 2.32
130.76, 2.32
130.88, 2.32
130.99, 2.33
131.11, 2.32
131.23, 2.32
131.34, 2.33
131.46, 2.31
131.58, 2.31
131.69, 2.32
131.81, 2.32
131.92, 2.31
132.04, 2.31
132.16, 2.32
132.27, 2.31
132.39, 2.30
132.51, 2.32
132.63, 2.31
132.74, 2.32
132.86, 2.32
132.97, 2.31
133.09, 2.32
133.21, 2.30
133.34, 2.31
133.46, 2.30
133.57, 2.31
133.69, 2.30
133.81, 2.30
133.92, 2.30
134.04, 2.30
134.16, 2.30
134.27, 2.30
134.39, 2.30
134.51, 2.31
134.62, 2.30
134.74, 2.30
134.86, 2.31
134.97, 2.30
135.09, 2.29
135.21, 2.30
135.32, 2.29
135.44, 2.28
135.56, 2.30
135.67, 2.29
135.79, 2.29
135.90, 2.29
136.02, 2.29
136.14, 2.28
136.25, 2.29
136.37, 2.30
136.49, 2.29
136.61, 2.30
136.72, 2.29
136.84, 2.29
136.95, 2.28
137.07, 2.28
137.19, 2.28
137.30, 2.28
137.42, 2.27
137.54, 2.28
137.65, 2.28
137.77, 2.28
137.89, 2.28
138.00, 2.28
138.12, 2.28
138.24, 2.29
138.35, 2.28
138.47, 2.28
138.59, 2.28
138.70, 2.27
138.82, 2.27
138.93, 2.27
139.05, 2.27
139.17, 2.26
139.29, 2.27
139.40, 2.27
139.52, 2.27
139.63, 2.27
139.75, 2.27
139.87, 2.27
139.98, 2.28
140.10, 2.27
140.22, 2.27
140.33, 2.28
140.45, 2.26
140.57, 2.27
140.68, 2.26
140.80, 2.27
140.92, 2.26
141.03, 2.26
141.15, 2.26
141.27, 2.26
141.38, 2.26
141.50, 2.26
141.62, 2.26
141.73, 2.26
141.85, 2.26
141.96, 2.27
142.08, 2.26
142.20, 2.26
142.32, 2.26
142.43, 2.25
142.55, 2.25
142.67, 2.25
142.78, 2.25
142.90, 2.25
143.02, 2.25
143.13, 2.26
143.25, 2.26
143.37, 2.25
143.48, 2.26
143.60, 2.25
143.71, 2.26
143.83, 2.26
143.95, 2.25
144.06, 2.26
144.18, 2.24
144.30, 2.25
144.41, 2.24
144.53, 2.25
144.65, 2.24
144.76, 2.24
144.88, 2.24
145.00, 2.24
145.11, 2.25
145.23, 2.25
145.35, 2.25
145.46, 2.25
145.58, 2.24
145.69, 2.25
145.81, 2.24
145.93, 2.24
146.05, 2.24
146.16, 2.24
146.28, 2.23
146.39, 2.23
146.51, 2.24
146.63, 2.23
146.75, 2.23
146.88, 2.24
146.99, 2.24
147.11, 2.24
147.23, 2.25
147.34, 2.23
147.46, 2.24
147.58, 2.23
147.70, 2.23
147.81, 2.23
147.93, 2.22
148.04, 2.23
148.16, 2.22
148.28, 2.22
148.39, 2.22
148.51, 2.23
148.63, 2.23
148.74, 2.23
148.86, 2.23
148.98, 2.23
149.09, 2.23
149.21, 2.23
149.33, 2.23
149.44, 2.23
149.56, 2.22
149.68, 2.22
149.79, 2.22
149.91, 2.22
150.03, 2.20
150.14, 2.22
150.26, 2.22
150.37, 2.22
150.49, 2.22
150.61, 2.22
150.72, 2.22
150.84, 2.22
150.96, 2.22
151.07, 2.21
151.19, 2.21
151.31, 2.21
151.42, 2.21
151.54, 2.20
151.66, 2.21
151.77, 2.20
151.89, 2.21
152.01, 2.21
152.12, 2.20
152.24, 2.21
152.36, 2.21
152.47, 2.21
152.59, 2.21
152.71, 2.21
152.82, 2.21
152.94, 2.21
153.05, 2.20
153.17, 2.20
153.29, 2.20
153.41, 2.20
153.52, 2.20
153.64, 2.20
153.76, 2.20
153.87, 2.19
153.99, 2.20
154.10, 2.21
154.23, 2.20
154.37, 2.21
154.49, 2.21
154.60, 2.20
154.72, 2.21
154.84, 2.19
154.95, 2.20
155.07, 2.19
155.19, 2.19
155.30, 2.19
155.42, 2.19
155.54, 2.19
155.65, 2.19
155.77, 2.19
155.89, 2.19
156.00, 2.20
156.12, 2.20
156.24, 2.19
156.35, 2.19
156.47, 2.19
156.59, 2.18
156.70, 2.18
156.82, 2.19
156.94, 2.18
157.05, 2.18
157.17, 2.19
157.28, 2.19
157.40, 2.18
157.52, 2.18
157.64, 2.19
157.75, 2.19
157.87, 2.18
157.99, 2.19
158.10, 2.18
158.22, 2.18
158.33, 2.18
158.45, 2.17
158.57, 2.18
158.68, 2.17
158.80, 2.18
158.92, 2.17
159.03, 2.18
159.15, 2.17
159.27, 2.17
159.38, 2.18
159.50, 2.18
159.62, 2.18
159.73, 2.18
159.85, 2.18
159.96, 2.18
160.08, 2.17
160.20, 2.17
160.32, 2.17
160.43, 2.17
160.54, 2.16
160.67, 2.17
160.78, 2.17
160.90, 2.17
161.02, 2.17
161.13, 2.17
161.24, 2.17
161.35, 2.17
161.47, 2.17
161.58, 2.17
161.69, 2.16
161.80, 2.17
161.91, 2.16
162.03, 2.16
162.15, 2.16
162.26, 2.15
162.38, 2.16
162.50, 2.16
162.61, 2.17
162.73, 2.16
162.85, 2.17
162.96, 2.17
163.08, 2.17
163.20, 2.16
163.31, 2.17
163.43, 2.16
163.55, 2.16
163.66, 2.16
163.78, 2.16
163.89, 2.16
164.01, 2.15
164.13, 2.16
164.25, 2.16
164.36, 2.16
164.48, 2.15
164.60, 2.16
164.71, 2.16
164.83, 2.16
164.95, 2.16
165.06, 2.16
165.18, 2.16
165.29, 2.15
165.41, 2.16
165.53, 2.15
165.64, 2.15
165.76, 2.15
165.88, 2.15
165.99, 2.15
166.13, 2.15
166.24, 2.15
166.36, 2.15
166.48, 2.15
166.59, 2.15
166.71, 2.15
166.82, 2.16
166.94, 2.15
167.06, 2.15
167.18, 2.15
167.29, 2.14
167.41, 2.15
167.52, 2.14
167.64, 2.14
167.76, 2.15
167.88, 2.15
167.99, 2.14
168.11, 2.15
168.22, 2.16
168.34, 2.15
168.46, 2.14
168.57, 2.14
168.69, 2.15
168.81, 2.13
168.92, 2.14
169.04, 2.14
169.16, 2.13
169.27, 2.14
169.39, 2.13
169.51, 2.14
169.62, 2.13
169.74, 2.14
169.86, 2.13
169.97, 2.15
170.09, 2.14
170.21, 2.14
170.32, 2.14
170.44, 2.13
170.56, 2.13
170.67, 2.13
170.79, 2.13
170.91, 2.13
171.02, 2.12
171.14, 2.12
171.26, 2.13
171.37, 2.13
171.49, 2.12
171.60, 2.13
171.72, 2.14
171.84, 2.13
171.96, 2.13
172.07, 2.12
172.19, 2.13
172.30, 2.12
172.42, 2.12
172.54, 2.12
172.65, 2.11
172.77, 2.12
172.89, 2.11
173.00, 2.12
173.12, 2.11
173.24, 2.12
173.35, 2.12
173.47, 2.12
173.59, 2.12
173.70, 2.12
173.82, 2.12
173.94, 2.11
174.05, 2.11
174.17, 2.11
174.28, 2.11
174.41, 2.11
174.52, 2.10
174.64, 2.11
174.75, 2.11
174.87, 2.11
174.99, 2.11
175.10, 2.12
175.22, 2.11
175.33, 2.12
175.44, 2.12
175.55, 2.11
175.66, 2.10
175.77, 2.10
175.89, 2.10
176.00, 2.10
176.11, 2.11
176.24, 2.10
176.48, 2.10
176.66, 2.11
176.79, 2.10
176.90, 2.11
177.01, 2.10
177.12, 2.11
177.23, 2.11
177.34, 2.11
177.46, 2.10
177.57, 2.10
177.68, 2.10
177.80, 2.10
177.92, 2.10
178.03, 2.10
178.15, 2.10
178.27, 2.10
178.38, 2.10
178.50, 2.10
178.62, 2.10
178.73, 2.11
178.85, 2.10
178.96, 2.11
179.08, 2.10
179.20, 2.10
179.31, 2.09
179.43, 2.09
179.55, 2.09
179.66, 2.09
179.78, 2.09
179.90, 2.09
180.01, 2.09
180.13, 2.10
180.25, 2.10
180.36, 2.09
180.48, 2.10
180.60, 2.09
180.71, 2.10
180.83, 2.09
180.94, 2.09
181.06, 2.09
181.18, 2.09
181.30, 2.08
181.41, 2.08
181.53, 2.08
181.65, 2.08
181.76, 2.08
181.88, 2.09
182.00, 2.09
182.11, 2.09
182.23, 2.09
182.36, 2.09
182.48, 2.08
182.59, 2.09
182.71, 2.08
182.83, 2.07
182.95, 2.08
183.06, 2.08
183.18, 2.07
183.30, 2.07
183.47, 2.08
183.71, 2.08
183.87, 2.07
184.10, 2.09
184.25, 2.08
184.38, 2.09
184.51, 2.08
184.65, 2.08
184.80, 2.08
184.94, 2.07
185.08, 2.07
185.22, 2.07
185.34, 2.07
185.46, 2.08
185.58, 2.07
185.69, 2.08
185.81, 2.08
185.93, 2.08
186.04, 2.08
186.18, 2.08
186.31, 2.08
186.42, 2.07
186.53, 2.08
186.66, 2.08
186.78, 2.06
186.90, 2.06
187.02, 2.07
187.14, 2.07
187.25, 2.06
187.37, 2.06
187.48, 2.07
187.60, 2.07
187.73, 2.07
187.84, 2.07
187.95, 2.07
188.07, 2.06
188.19, 2.07
188.31, 2.06
188.42, 2.06
188.55, 2.06
188.68, 2.05
188.81, 2.06
188.94, 2.05
189.06, 2.06
189.17, 2.06
189.29, 2.06
189.40, 2.06
189.52, 2.06
189.64, 2.06
189.76, 2.07
189.87, 2.05
189.99, 2.05
190.11, 2.06
190.22, 2.05
190.34, 2.05
190.46, 2.05
190.58, 2.05
190.70, 2.04
190.83, 2.05
190.95, 2.05
191.07, 2.05
191.19, 2.05
191.30, 2.06
191.42, 2.05
191.54, 2.05
191.65, 2.05
191.77, 2.04
191.89, 2.05
192.00, 2.04
192.12, 2.04
192.23, 2.04
192.35, 2.04
192.47, 2.04
192.58, 2.04
192.70, 2.05
192.82, 2.05
192.94, 2.05
193.06, 2.05
193.18, 2.05
193.29, 2.05
193.42, 2.04
193.55, 2.05
193.67, 2.04
193.79, 2.03
193.90, 2.04
194.02, 2.04
194.13, 2.03
194.25, 2.04
194.37, 2.04
194.48, 2.03
194.60, 2.04
194.72, 2.04
194.89, 2.04
195.08, 2.04
195.32, 2.04
195.49, 2.04
195.69, 2.02
196.04, 2.03
196.17, 2.02
196.28, 2.03
196.40, 2.02
196.52, 2.03
196.63, 2.03
196.75, 2.03
196.86, 2.03
196.98, 2.03
197.10, 2.03
197.22, 2.03
197.33, 2.03
197.45, 2.03
197.56, 2.03
197.68, 2.03
197.80, 2.02
197.92, 2.02
198.05, 2.02
198.16, 2.02
198.27, 2.02
198.39, 2.03
198.50, 2.03
198.61, 2.02
198.73, 2.03
198.85, 2.03
198.96, 2.02
199.08, 2.02
199.20, 2.03
199.33, 2.01
199.51, 2.02
199.77, 2.02
199.90, 2.01
200.01, 2.02
200.13, 2.01
200.25, 2.02
200.36, 2.02
200.48, 2.02
200.59, 2.02
200.71, 2.02
200.83, 2.02
200.94, 2.03
201.06, 2.02
201.18, 2.02
201.29, 2.02
201.41, 2.02
201.53, 2.01
201.68, 2.01
201.79, 2.02
201.91, 2.01
202.03, 2.01
202.14, 2.02
202.26, 2.02
202.38, 2.01
202.49, 2.02
202.61, 2.02
202.73, 2.01
202.84, 2.01
202.96, 2.01
203.07, 2.01
203.19, 2.01
203.31, 2.01
203.43, 2.00
203.54, 2.01
203.66, 2.01
203.77, 2.01
203.89, 2.02
204.01, 2.01
204.12, 2.02
204.24, 2.01
204.36, 2.01
204.47, 2.01
204.59, 2.01
204.71, 2.01
204.82, 2.00
204.94, 2.00
205.06, 2.00
205.17, 2.01
205.29, 2.00
205.40, 2.01
205.52, 2.01
205.64, 2.01
205.76, 2.01
205.87, 2.01
205.99, 2.01
206.11, 2.00
206.22, 2.00
206.34, 2.00
206.45, 1.99
206.57, 2.00
206.69, 1.99
206.80, 2.00
206.95, 2.00
207.07, 2.00
207.19, 2.00
207.30, 2.01
207.42, 2.00
207.54, 2.01
207.65, 2.00
207.77, 2.00
207.89, 1.99
208.00, 1.99
208.12, 1.99
208.24, 1.99
208.35, 1.99
208.47, 1.99
208.59, 1.99
208.70, 2.00
208.82, 2.00
208.93, 2.00
209.05, 2.00
209.17, 2.00
209.28, 2.00
209.40, 1.99
209.52, 1.99
209.63, 1.99
209.75, 1.99
209.87, 1.98
209.98, 1.98
210.10, 1.99
210.22, 1.99
210.33, 1.98
210.45, 1.99
210.57, 1.99
210.68, 1.99
210.80, 1.99
210.92, 1.99
211.03, 1.99
211.15, 1.99
211.27, 1.98
211.39, 1.98
211.50, 1.98
211.62, 1.98
211.73, 1.98
211.85, 1.98
211.97, 1.98
212.08, 1.98
212.20, 1.99
212.32, 1.98
212.43, 1.99
212.55, 1.99
212.67, 1.98
212.78, 1.99
212.90, 1.98
213.02, 1.98
213.13, 1.98
213.25, 1.98
213.36, 1.97
213.48, 1.98
213.60, 1.98
213.72, 1.98
213.83, 1.97
213.96, 1.98
214.07, 1.99
214.20, 1.98
214.31, 1.98
214.43, 1.98
214.55, 1.97
214.66, 1.98
214.78, 1.97
214.90, 1.97
215.01, 1.98
215.13, 1.97
215.25, 1.98
215.36, 1.97
215.48, 1.98
215.60, 1.98
215.71, 1.98
215.83, 1.98
215.94, 1.99
216.06, 1.98
216.18, 1.97
216.29, 1.98
216.41, 1.97
216.53, 1.97
216.65, 1.98
216.76, 1.98
216.87, 1.97
216.99, 1.97
217.17, 1.98
217.30, 1.98
217.41, 1.98
217.53, 1.97
217.65, 1.98
217.76, 1.98
217.88, 1.97
218.00, 1.96
218.12, 1.97
218.25, 1.96
218.36, 1.97
218.47, 1.97
218.60, 1.96
218.71, 1.97
218.82, 1.97
218.93, 1.97
219.04, 1.97
219.16, 1.97
219.28, 1.97
219.39, 1.97
219.51, 1.97
219.63, 1.96
219.74, 1.96
219.86, 1.96
219.98, 1.96
220.09, 1.96
220.21, 1.96
220.33, 1.96
220.44, 1.96
220.56, 1.96
220.67, 1.96
220.79, 1.97
220.91, 1.97
221.03, 1.96
221.14, 1.96
221.26, 1.96
221.38, 1.96
221.49, 1.96
221.61, 1.95
221.72, 1.96
221.84, 1.96
221.96, 1.96
222.07, 1.96
222.19, 1.96
222.31, 1.96
222.42, 1.96
222.54, 1.96
222.66, 1.96
222.77, 1.96
222.89, 1.96
223.01, 1.95
223.12, 1.95
223.24, 1.95
223.35, 1.96
223.47, 1.96
223.59, 1.95
223.71, 1.96
223.82, 1.96
223.94, 1.96
224.05, 1.96
224.17, 1.96
224.29, 1.95
224.40, 1.95
224.52, 1.95
224.64, 1.95
224.75, 1.95
224.87, 1.94
224.99, 1.95
225.12, 1.95
225.24, 1.95
225.35, 1.95
225.47, 1.96
225.59, 1.95
225.70, 1.96
225.82, 1.95
225.94, 1.95
226.05, 1.95
226.17, 1.94
226.29, 1.95
226.40, 1.94
226.52, 1.94
226.64, 1.95
226.75, 1.95
226.87, 1.95
226.99, 1.95
227.10, 1.95
227.22, 1.95
227.34, 1.95
227.45, 1.95
227.57, 1.96
227.68, 1.95
227.80, 1.94
227.92, 1.94
228.03, 1.95
228.15, 1.94
228.27, 1.93
228.39, 1.94
228.50, 1.94
228.62, 1.94
228.73, 1.94
228.85, 1.95
228.97, 1.95
229.08, 1.94
229.20, 1.94
229.32, 1.94
229.43, 1.94
229.55, 1.94
229.67, 1.93
229.78, 1.93
229.90, 1.93
230.02, 1.93
230.13, 1.93
230.25, 1.93
230.37, 1.94
230.48, 1.94
230.60, 1.94
230.72, 1.94
230.83, 1.94
230.95, 1.94
231.07, 1.93
231.18, 1.93
231.30, 1.93
231.41, 1.93
231.53, 1.93
231.65, 1.93
231.76, 1.94
231.88, 1.93
232.00, 1.93
232.11, 1.94
232.23, 1.94
232.35, 1.94
232.46, 1.93
232.58, 1.93
232.70, 1.93
232.81, 1.93
232.93, 1.93
233.04, 1.92
233.16, 1.93
233.28, 1.92
233.40, 1.93
233.51, 1.93
233.63, 1.93
233.75, 1.93
233.86, 1.94
233.98, 1.93
234.09, 1.93
234.21, 1.93
234.33, 1.93
234.44, 1.93
234.56, 1.93
234.68, 1.92
234.79, 1.92
234.91, 1.93
235.03, 1.92
235.15, 1.92
235.26, 1.93
235.38, 1.93
235.49, 1.92
235.61, 1.93
235.73, 1.93
235.84, 1.92
235.96, 1.92
236.08, 1.92
236.19, 1.91
236.31, 1.92
236.43, 1.92
236.54, 1.92
236.66, 1.92
236.78, 1.92
236.89, 1.92
237.01, 1.92
237.12, 1.93
237.24, 1.93
237.36, 1.93
237.47, 1.93
237.59, 1.92
237.71, 1.92
237.83, 1.92
237.94, 1.92
238.06, 1.92
238.17, 1.92
238.29, 1.92
238.41, 1.92
238.52, 1.92
238.64, 1.92
238.76, 1.92
238.87, 1.92
238.99, 1.93
239.11, 1.92
239.22, 1.92
239.34, 1.92
239.46, 1.92
239.57, 1.91
239.69, 1.91
239.81, 1.91
239.92, 1.91
240.04, 1.91
240.16, 1.91
240.27, 1.92
240.39, 1.92
240.51, 1.92
240.62, 1.92
240.74, 1.92
240.85, 1.91
240.97, 1.91
241.09, 1.91
241.21, 1.91
241.32, 1.91
241.44, 1.91
241.56, 1.91
241.67, 1.90
241.79, 1.91
241.91, 1.91
242.02, 1.91
242.14, 1.91
242.25, 1.91
242.37, 1.91
242.49, 1.92
242.60, 1.91
242.72, 1.90
242.84, 1.91
242.95, 1.91
243.07, 1.90
243.19, 1.90
243.30, 1.91
243.42, 1.90
243.54, 1.91
243.65, 1.91
243.77, 1.91
243.89, 1.91
244.00, 1.90
244.12, 1.90
244.24, 1.90
244.35, 1.90
244.47, 1.90
244.59, 1.90
244.70, 1.90
244.82, 1.90
244.94, 1.90
245.05, 1.90
245.17, 1.91
245.29, 1.90
245.40, 1.90
245.52, 1.91
245.63, 1.90
245.75, 1.90
245.87, 1.90
245.98, 1.89
246.10, 1.90
246.22, 1.90
246.33, 1.89
246.45, 1.89
246.57, 1.90
246.68, 1.90
246.80, 1.90
246.92, 1.91
247.03, 1.91
247.15, 1.90
247.27, 1.90
247.38, 1.89
247.50, 1.90
247.62, 1.89
247.73, 1.90
247.85, 1.89
247.96, 1.89
248.08, 1.89
248.20, 1.89
248.32, 1.89
248.43, 1.90
248.55, 1.90
248.66, 1.90
248.78, 1.90
248.90, 1.90
249.01, 1.90
249.13, 1.89
249.25, 1.89
249.36, 1.89
249.48, 1.89
249.60, 1.89
249.71, 1.89
249.83, 1.89
249.95, 1.89
250.06, 1.89
250.18, 1.90
250.30, 1.90
250.41, 1.89
250.53, 1.90
250.65, 1.89
250.76, 1.88
250.89, 1.89
251.01, 1.88
251.13, 1.89
251.25, 1.88
251.36, 1.89
251.48, 1.88
251.60, 1.89
251.71, 1.89
251.83, 1.89
251.95, 1.89
252.06, 1.89
252.18, 1.89
252.29, 1.89
252.41, 1.89
252.53, 1.88
252.64, 1.89
252.76, 1.88
252.88, 1.88
253.00, 1.89
253.11, 1.88
253.23, 1.88
253.34, 1.89
253.46, 1.89
253.58, 1.89
253.69, 1.89
253.81, 1.89
253.93, 1.89
254.04, 1.88
254.16, 1.88
254.28, 1.89
254.39, 1.88
254.51, 1.88
254.63, 1.88
254.74, 1.88
254.86, 1.89
254.97, 1.88
255.09, 1.89
255.21, 1.89
255.33, 1.88
255.44, 1.88
255.56, 1.88
255.67, 1.88
255.79, 1.88
255.91, 1.88
256.02, 1.88
256.14, 1.87
256.26, 1.88
256.37, 1.88
256.49, 1.88
256.61, 1.89
256.73, 1.89
256.84, 1.88
256.96, 1.89
257.07, 1.88
257.19, 1.88
257.31, 1.88
257.42, 1.88
257.54, 1.87
257.66, 1.87
257.77, 1.87
257.89, 1.87
258.01, 1.87
258.12, 1.87
258.24, 1.87
258.36, 1.88
258.47, 1.87
258.59, 1.88
258.71, 1.87
258.82, 1.88
258.94, 1.87
259.05, 1.87
259.17, 1.87
259.29, 1.87
259.41, 1.87
259.52, 1.87
259.64, 1.87
259.75, 1.87
259.87, 1.87
259.99, 1.88
260.10, 1.87
260.22, 1.87
260.34, 1.87
260.45, 1.87
260.57, 1.86
260.69, 1.86
260.80, 1.86
260.92, 1.86
261.04, 1.86
261.15, 1.87
261.27, 1.86
261.39, 1.86
261.50, 1.87
261.62, 1.86
261.74, 1.86
261.85, 1.86
261.97, 1.87
262.09, 1.86
262.20, 1.86
262.32, 1.86
262.43, 1.85
262.55, 1.86
262.67, 1.86
262.78, 1.86
262.90, 1.86
263.02, 1.86
263.13, 1.87
263.25, 1.86
263.37, 1.87
263.49, 1.86
263.60, 1.86
263.72, 1.86
263.84, 1.85
263.95, 1.86
264.07, 1.86
264.18, 1.85
264.30, 1.85
264.42, 1.86
264.53, 1.86
264.65, 1.86
264.77, 1.86
264.88, 1.86
265.00, 1.86
265.12, 1.86
265.23, 1.85
265.35, 1.85
265.46, 1.86
265.58, 1.85
265.70, 1.85
265.82, 1.85
265.93, 1.86
266.05, 1.85
266.17, 1.86
266.28, 1.85
266.40, 1.86
266.52, 1.86
266.63, 1.86
266.75, 1.86
266.86, 1.85
266.98, 1.85
267.10, 1.85
267.21, 1.85
267.33, 1.85
267.45, 1.85
267.56, 1.86
267.68, 1.85
267.80, 1.85
267.91, 1.85
268.03, 1.86
268.15, 1.85
268.26, 1.86
268.38, 1.86
268.50, 1.85
268.61, 1.85
268.73, 1.85
268.85, 1.84
268.96, 1.84
269.08, 1.84
269.19, 1.85
269.31, 1.85
269.43, 1.85
269.54, 1.85
269.66, 1.85
269.78, 1.85
269.89, 1.85
270.01, 1.85
270.13, 1.85
270.24, 1.84
270.36, 1.84
270.48, 1.85
270.59, 1.84
270.71, 1.85
270.83, 1.84
270.94, 1.84
271.06, 1.85
271.18, 1.85
271.30, 1.84
271.41, 1.85
271.53, 1.84
271.64, 1.84
271.76, 1.85
271.88, 1.84
271.99, 1.84
272.11, 1.84
272.23, 1.85
272.34, 1.83
272.46, 1.84
272.57, 1.84
272.69, 1.84
272.81, 1.85
272.93, 1.84
273.06, 1.85
273.18, 1.84
273.29, 1.85
273.41, 1.84
273.53, 1.84
273.64, 1.84
273.76, 1.83
273.88, 1.84
273.99, 1.84
274.11, 1.84
274.22, 1.84
274.34, 1.84
274.46, 1.84
274.57, 1.85
274.69, 1.84
274.81, 1.84
274.92, 1.84
275.04, 1.83
275.16, 1.84
275.27, 1.83
275.39, 1.83
275.51, 1.83
275.62, 1.83
275.74, 1.83
275.85, 1.83
275.97, 1.84
276.09, 1.84
276.21, 1.84
276.32, 1.84
276.44, 1.84
276.56, 1.84
276.67, 1.83
276.79, 1.84
276.91, 1.83
277.02, 1.83
277.14, 1.83
277.25, 1.83
277.37, 1.83
277.49, 1.83
277.61, 1.83
277.72, 1.83
277.84, 1.84
277.95, 1.84
278.07, 1.84
278.19, 1.83
278.30, 1.83
278.42, 1.83
278.54, 1.82
278.65, 1.82
278.77, 1.83
278.89, 1.82
279.00, 1.82
279.12, 1.83
279.24, 1.83
279.35, 1.83
279.47, 1.83
279.59, 1.83
279.70, 1.83
279.82, 1.83
279.94, 1.82
280.05, 1.82
280.17, 1.82
280.29, 1.82
280.40, 1.82
280.52, 1.82
280.63, 1.82
280.75, 1.82
280.87, 1.83
280.98, 1.83
281.10, 1.83
281.22, 1.83
281.34, 1.83
281.45, 1.82
281.57, 1.83
281.68, 1.82
281.80, 1.82
281.92, 1.83
282.03, 1.82
282.15, 1.82
282.27, 1.82
282.38, 1.82
282.50, 1.82
282.62, 1.82
282.73, 1.83
282.85, 1.82
282.97, 1.82
283.08, 1.83
283.20, 1.82
283.31, 1.82
283.43, 1.82
283.55, 1.81
283.66, 1.82
283.78, 1.81
283.90, 1.82
284.03, 1.82
284.15, 1.82
284.27, 1.82
284.38, 1.83
284.50, 1.82
284.61, 1.82
284.73, 1.82
284.85, 1.82
284.96, 1.81
285.10, 1.82
285.21, 1.81
285.33, 1.81
285.45, 1.81
285.56, 1.82
285.68, 1.82
285.79, 1.82
285.91, 1.82
286.03, 1.83
286.15, 1.82
286.26, 1.81
286.38, 1.82
286.50, 1.82
286.61, 1.81
286.73, 1.81
286.85, 1.82
286.96, 1.80
287.08, 1.81
287.19, 1.81
287.31, 1.81
287.43, 1.81
287.55, 1.81
287.66, 1.82
287.78, 1.82
287.89, 1.82
288.01, 1.81
288.13, 1.81
288.24, 1.81
288.36, 1.81
288.48, 1.81
288.59, 1.81
288.71, 1.81
288.83, 1.81
288.94, 1.81
289.06, 1.81
289.18, 1.82
289.29, 1.81
289.41, 1.81
289.53, 1.82
289.64, 1.81
289.76, 1.80
289.88, 1.80
289.99, 1.80
290.11, 1.80
290.23, 1.80
290.34, 1.81
290.48, 1.81
290.59, 1.81
290.71, 1.81
290.83, 1.81
290.94, 1.81
291.06, 1.81
291.17, 1.81
291.29, 1.81
291.41, 1.80
291.52, 1.80
291.64, 1.80
291.76, 1.80
291.87, 1.80
291.99, 1.80
292.11, 1.80
292.22, 1.80
292.34, 1.80
292.46, 1.81
292.57, 1.80
292.69, 1.81
292.81, 1.80
292.92, 1.80
293.04, 1.80
293.16, 1.79
293.27, 1.80
293.39, 1.80
293.51, 1.80
293.62, 1.80
293.74, 1.80
293.86, 1.80
293.97, 1.80
294.09, 1.81
294.21, 1.81
294.32, 1.80
294.46, 1.81
294.57, 1.80
294.69, 1.80
294.80, 1.79
294.92, 1.79
295.04, 1.79
295.15, 1.79
295.27, 1.79
295.39, 1.79
295.51, 1.79
295.62, 1.80
295.74, 1.80
295.85, 1.80
295.97, 1.80
296.09, 1.80
296.20, 1.80
296.32, 1.79
296.44, 1.79
296.55, 1.79
296.67, 1.78
296.79, 1.79
296.90, 1.79
297.02, 1.79
297.14, 1.79
297.25, 1.80
297.37, 1.79
297.49, 1.79
297.60, 1.80
297.72, 1.80
297.84, 1.79
297.95, 1.80
298.07, 1.79
298.18, 1.79
298.30, 1.79
298.42, 1.78
298.53, 1.79
298.65, 1.79
298.77, 1.79
298.88, 1.79
299.00, 1.79
299.12, 1.80
299.23, 1.80
299.35, 1.80
299.47, 1.80
299.58, 1.79
299.70, 1.79
299.82, 1.79
299.93, 1.79
300.05, 1.79
300.17, 1.79
300.28, 1.78
300.40, 1.80
300.52, 1.79
300.63, 1.79
300.75, 1.80
300.86, 1.80
300.98, 1.79
301.10, 1.79
301.21, 1.79
301.33, 1.78
301.45, 1.79
301.56, 1.79
301.68, 1.78
301.80, 1.79
301.91, 1.79
302.03, 1.79
302.15, 1.79
302.26, 1.79
302.38, 1.79
302.50, 1.79
302.61, 1.79
302.73, 1.79
302.85, 1.79
302.97, 1.79
303.08, 1.78
303.20, 1.78
303.31, 1.78
303.43, 1.78
303.55, 1.79
303.66, 1.78
303.78, 1.78
303.90, 1.80
304.01, 1.79
304.13, 1.78
304.25, 1.79
304.36, 1.79
304.48, 1.78
304.59, 1.79
304.71, 1.78
304.83, 1.78
304.94, 1.78
305.06, 1.79
305.18, 1.78
305.29, 1.79
305.41, 1.78
305.53, 1.78
305.64, 1.79
305.76, 1.79
305.88, 1.79
305.99, 1.78
306.13, 1.78
306.24, 1.78
306.36, 1.78
306.48, 1.78
306.59, 1.77
306.71, 1.78
306.83, 1.78
306.94, 1.78
307.06, 1.79
307.18, 1.78
307.29, 1.78
307.41, 1.79
307.53, 1.79
307.64, 1.78
307.76, 1.79
307.87, 1.78
307.99, 1.77
308.11, 1.78
308.23, 1.78
308.34, 1.77
308.46, 1.77
308.58, 1.78
308.69, 1.77
308.81, 1.78
308.92, 1.78
309.04, 1.77
309.16, 1.79
309.27, 1.78
309.39, 1.78
309.51, 1.77
309.62, 1.77
309.74, 1.77
309.86, 1.78
309.97, 1.77
310.09, 1.77
310.21, 1.77
310.32, 1.77
310.44, 1.77
310.56, 1.78
310.67, 1.78
310.79, 1.78
310.91, 1.78
311.02, 1.77
311.14, 1.77
311.25, 1.78
311.37, 1.77
311.49, 1.77
311.61, 1.78
311.72, 1.77
311.84, 1.76
311.96, 1.77
312.07, 1.77
312.19, 1.77
312.31, 1.78
312.42, 1.78
312.54, 1.77
312.65, 1.77
312.77, 1.77
312.89, 1.77
313.00, 1.76
313.12, 1.76
313.24, 1.76
313.35, 1.76
313.47, 1.77
313.59, 1.76
313.70, 1.77
313.82, 1.77
313.94, 1.77
314.05, 1.77
314.17, 1.77
314.29, 1.77
314.40, 1.77
314.52, 1.76
314.64, 1.76
314.75, 1.77
314.87, 1.76
314.99, 1.76
315.10, 1.77
315.22, 1.76
315.34, 1.76
315.45, 1.77
315.57, 1.77
315.68, 1.77
315.80, 1.77
315.92, 1.77
316.04, 1.76
316.15, 1.77
316.27, 1.76
316.39, 1.75
316.50, 1.76
316.62, 1.76
316.74, 1.76
316.85, 1.76
316.97, 1.76
317.08, 1.76
317.20, 1.77
317.32, 1.76
317.43, 1.77
317.55, 1.76
317.67, 1.76
317.78, 1.76
317.90, 1.76
318.02, 1.76
318.13, 1.75
318.25, 1.76
318.37, 1.76
318.48, 1.76
318.60, 1.76
318.72, 1.76
318.83, 1.76
318.95, 1.77
319.06, 1.77
319.18, 1.77
319.30, 1.75
319.42, 1.76
319.53, 1.76
319.65, 1.75
319.76, 1.76
319.88, 1.75
320.00, 1.76
320.11, 1.76
320.23, 1.75
320.35, 1.76
320.46, 1.76
320.58, 1.76
320.70, 1.76
320.81, 1.76
320.93, 1.76
321.05, 1.76
321.16, 1.76
321.28, 1.75
321.40, 1.75
321.51, 1.76
321.63, 1.75
321.74, 1.75
321.86, 1.75
321.98, 1.75
322.10, 1.76
322.21, 1.76
322.33, 1.76
322.45, 1.76
322.56, 1.76
322.68, 1.75
322.79, 1.75
322.91, 1.75
323.03, 1.75
323.14, 1.74
323.26, 1.75
323.38, 1.75
323.49, 1.75
323.61, 1.75
323.73, 1.75
323.84, 1.76
323.96, 1.75
324.08, 1.76
324.19, 1.76
324.31, 1.76
324.43, 1.75
324.54, 1.75
324.66, 1.75
324.78, 1.75
324.89, 1.74
325.01, 1.75
325.13, 1.75
325.24, 1.74
325.36, 1.75
325.48, 1.75
325.59, 1.75
325.71, 1.75
325.82, 1.75
325.94, 1.75
326.06, 1.75
326.17, 1.75
326.29, 1.74
326.41, 1.75
326.53, 1.75
326.64, 1.74
326.76, 1.74
326.87, 1.75
326.99, 1.74
327.11, 1.75
327.22, 1.75
327.34, 1.75
327.46, 1.75
327.57, 1.75
327.69, 1.75
327.81, 1.74
327.92, 1.74
328.04, 1.74
328.16, 1.74
328.27, 1.74
328.41, 1.74
328.52, 1.74
328.64, 1.74
328.75, 1.74
328.87, 1.75
328.99, 1.74
329.10, 1.75
329.22, 1.75
329.34, 1.74
329.45, 1.74
329.57, 1.75
329.69, 1.74
329.80, 1.74
329.92, 1.74
330.04, 1.74
330.15, 1.74
330.27, 1.74
330.39, 1.74
330.50, 1.74
330.62, 1.74
330.74, 1.74
330.85, 1.74
330.97, 1.75
331.09, 1.74
331.20, 1.75
331.32, 1.74
331.44, 1.74
331.55, 1.74
331.67, 1.74
331.79, 1.74
331.90, 1.74
332.02, 1.74
332.14, 1.74
332.25, 1.74
332.37, 1.74
332.49, 1.74
332.60, 1.74
332.72, 1.74
332.84, 1.74
332.95, 1.74
333.07, 1.74
333.18, 1.73
333.30, 1.74
333.42, 1.74
333.53, 1.73
333.65, 1.74
333.77, 1.74
333.88, 1.74
334.00, 1.73
334.12, 1.74
334.23, 1.74
334.35, 1.74
334.47, 1.74
334.58, 1.73
334.70, 1.74
334.81, 1.73
334.94, 1.74
335.05, 1.73
335.17, 1.73
335.28, 1.73
335.40, 1.73
335.52, 1.73
335.63, 1.74
335.75, 1.74
335.87, 1.74
335.98, 1.74
336.10, 1.74
336.22, 1.73
336.56, 1.74
